time posx posy posz velx vely velz accx accy accz omg1 omg2 omg3 omg4 epot ecin emec 
0.05 0.00 0.00 0.01 0.00 0.00 0.16 0.00 0.00 3.24 1.60 1.80 2.00 1.80 0.12 0.01 0.13 
0.10 0.00 0.00 0.03 0.00 0.00 0.32 0.00 0.00 3.24 2.00 1.80 1.60 1.80 0.32 0.05 0.37 
0.15 0.00 0.00 0.06 0.00 0.00 0.49 0.00 0.00 3.24 1.60 1.80 2.00 1.80 0.60 0.12 0.71 
0.20 0.00 0.00 0.10 0.00 0.00 0.65 0.01 0.01 3.24 1.60 1.80 2.00 1.80 0.95 0.21 1.16 
0.25 0.00 0.00 0.14 0.00 0.00 0.81 0.01 0.01 3.24 1.60 1.80 2.00 1.80 1.39 0.33 1.72 
0.30 0.00 0.00 0.19 0.00 0.00 0.97 0.02 0.02 3.24 1.60 1.80 2.00 1.80 1.91 0.47 2.38 
0.35 0.00 0.00 0.26 0.00 0.00 1.13 0.04 0.04 3.24 1.60 1.80 2.00 1.80 2.50 0.64 3.14 
0.40 0.00 0.00 0.32 0.01 0.01 1.30 0.05 0.05 3.24 1.60 1.80 2.00 1.80 3.18 0.84 4.02 
0.45 0.00 0.00 0.40 0.01 0.01 1.46 0.07 0.07 3.24 1.60 1.80 2.00 1.80 3.93 1.06 4.99 
0.50 0.00 0.00 0.49 0.02 0.02 1.62 0.09 0.09 3.24 1.60 1.80 2.00 1.80 4.76 1.31 6.08 
0.55 0.00 0.00 0.58 0.02 0.02 1.78 0.12 0.12 3.24 1.60 1.80 2.00 1.80 5.68 1.59 7.26 
0.60 0.01 0.01 0.68 0.03 0.03 1.94 0.15 0.15 3.24 1.60 1.80 2.00 1.80 6.67 1.89 8.56 
0.65 0.01 0.01 0.79 0.04 0.04 2.11 0.18 0.18 3.24 1.60 1.80 2.00 1.80 7.74 2.22 9.96 
0.70 0.01 0.01 0.91 0.05 0.05 2.27 0.21 0.21 3.24 1.60 1.80 2.00 1.80 8.89 2.57 11.46 
0.75 0.01 0.01 1.03 0.06 0.06 2.43 0.25 0.25 3.24 1.80 2.00 1.80 1.60 10.12 2.95 13.07 
0.80 0.02 0.02 1.17 0.07 0.07 2.59 0.28 0.29 3.23 1.80 2.00 1.80 1.60 11.43 3.36 14.79 
0.85 0.02 0.02 1.31 0.09 0.09 2.75 0.30 0.33 3.23 1.80 2.00 1.80 1.60 12.82 3.80 16.61 
0.90 0.03 0.03 1.46 0.11 0.11 2.91 0.33 0.37 3.23 1.80 2.00 1.80 1.60 14.28 4.26 18.54 
0.95 0.03 0.04 1.62 0.12 0.13 3.08 0.35 0.42 3.23 1.80 2.00 1.80 1.60 15.83 4.75 20.58 
1.00 0.04 0.04 1.78 0.14 0.15 3.24 0.37 0.47 3.23 1.80 2.00 1.80 1.60 17.46 5.26 22.72 
1.05 0.05 0.05 1.96 0.16 0.18 3.40 0.39 0.52 3.22 1.80 2.00 1.80 1.60 19.16 5.80 24.96 
1.10 0.06 0.06 2.14 0.18 0.21 3.56 0.40 0.58 3.22 1.80 2.00 1.80 1.60 20.94 6.37 27.32 
1.15 0.07 0.08 2.33 0.20 0.24 3.72 0.41 0.64 3.22 1.80 2.00 1.80 1.60 22.81 6.97 29.78 
1.20 0.08 0.09 2.53 0.22 0.28 3.88 0.42 0.70 3.21 2.00 1.80 1.60 1.80 24.75 7.59 32.34 
1.25 0.10 0.11 2.73 0.24 0.31 4.04 0.42 0.76 3.21 2.00 1.80 1.60 1.80 26.77 8.24 35.01 
1.30 0.11 0.13 2.95 0.26 0.36 4.20 0.42 0.81 3.21 2.00 1.80 1.60 1.80 28.87 8.92 37.79 
1.35 0.12 0.15 3.17 0.29 0.40 4.36 0.42 0.86 3.20 2.00 1.80 1.60 1.80 31.04 9.63 40.68 
1.40 0.14 0.17 3.40 0.31 0.44 4.52 0.41 0.91 3.20 2.00 1.80 1.60 1.80 33.30 10.37 43.67 
1.45 0.16 0.20 3.64 0.33 0.49 4.68 0.41 0.95 3.20 2.00 1.80 1.60 1.80 35.63 11.13 46.76 
1.50 0.17 0.23 3.88 0.35 0.54 4.84 0.40 1.00 3.20 2.00 1.80 1.60 1.80 38.04 11.93 49.97 
1.55 0.19 0.26 4.14 0.37 0.59 5.00 0.38 1.04 3.19 2.00 1.80 1.60 1.80 40.53 12.75 53.28 
1.60 0.21 0.29 4.40 0.38 0.65 5.16 0.37 1.07 3.19 2.00 1.80 1.60 1.80 43.10 13.60 56.70 
1.65 0.23 0.33 4.67 0.40 0.70 5.32 0.35 1.11 3.19 2.00 1.80 1.60 1.80 45.75 14.48 60.23 
1.70 0.25 0.37 4.95 0.42 0.76 5.48 0.33 1.14 3.19 2.00 1.80 1.60 1.80 48.47 15.39 63.86 
1.75 0.28 0.41 5.23 0.43 0.82 5.64 0.30 1.16 3.18 2.00 1.80 1.60 1.80 51.27 16.33 67.60 
1.80 0.30 0.45 5.53 0.45 0.88 5.80 0.28 1.19 3.18 2.00 1.80 1.60 1.80 54.15 17.29 71.44 
1.85 0.32 0.50 5.83 0.46 0.94 5.96 0.24 1.21 3.18 2.00 1.80 1.60 1.80 57.11 18.29 75.40 
1.90 0.35 0.55 6.14 0.47 1.00 6.12 0.21 1.23 3.18 2.00 1.80 1.60 1.80 60.15 19.31 79.46 
1.95 0.37 0.61 6.46 0.48 1.06 6.28 0.18 1.24 3.18 1.80 1.60 1.80 2.00 63.26 20.36 83.62 
2.00 0.39 0.67 6.77 0.48 1.11 6.26 0.11 0.92 -0.31 1.54 1.34 1.54 1.74 66.32 20.32 86.64 
2.05 0.42 0.72 7.07 0.49 1.14 6.14 0.07 0.73 -2.37 1.36 1.16 1.36 1.56 69.30 19.63 88.93 
2.10 0.44 0.78 7.36 0.49 1.17 5.95 0.04 0.58 -3.86 1.21 1.01 1.21 1.41 72.17 18.50 90.67 
2.15 0.47 0.84 7.64 0.49 1.20 5.70 0.02 0.48 -4.91 1.10 0.90 1.10 1.30 74.90 17.10 92.00 
2.20 0.49 0.90 7.91 0.49 1.22 5.42 0.01 0.41 -5.65 1.01 0.81 1.01 1.21 77.49 15.55 93.04 
2.25 0.52 0.97 8.16 0.49 1.23 5.11 0.01 0.36 -6.16 0.95 0.75 0.95 1.15 79.92 13.95 93.87 
2.30 0.54 1.03 8.39 0.49 1.25 4.79 0.00 0.33 -6.50 0.90 0.70 0.90 1.10 82.19 12.36 94.55 
2.35 0.57 1.09 8.60 0.49 1.27 4.45 -0.00 0.31 -6.72 0.87 0.67 0.87 1.07 84.29 10.83 95.12 
2.40 0.59 1.16 8.80 0.49 1.28 4.11 -0.01 0.30 -6.82 0.85 0.65 0.85 1.05 86.22 9.39 95.60 
2.45 0.62 1.22 8.98 0.49 1.30 3.77 -0.01 0.30 -6.83 0.85 0.65 0.85 1.05 87.98 8.06 96.04 
2.50 0.64 1.29 9.14 0.49 1.31 3.43 -0.01 0.30 -6.77 0.86 0.66 0.86 1.06 89.58 6.86 96.44 
2.55 0.66 1.36 9.29 0.49 1.33 3.10 -0.02 0.31 -6.64 0.88 0.68 0.88 1.08 91.01 5.80 96.81 
2.60 0.69 1.42 9.42 0.49 1.34 2.78 -0.02 0.33 -6.45 0.91 0.71 0.91 1.11 92.29 4.87 97.17 
2.65 0.71 1.49 9.53 0.49 1.36 2.47 -0.03 0.35 -6.20 0.94 0.74 0.94 1.14 93.43 4.08 97.51 
2.70 0.74 1.56 9.63 0.48 1.38 2.17 -0.03 0.38 -5.90 0.98 0.78 0.98 1.18 94.42 3.43 97.84 
2.75 0.76 1.63 9.72 0.48 1.40 1.89 -0.04 0.41 -5.56 1.02 0.82 1.02 1.22 95.28 2.89 98.17 
2.80 0.78 1.70 9.80 0.48 1.42 1.63 -0.04 0.44 -5.18 1.07 0.87 1.07 1.27 96.02 2.46 98.48 
2.85 0.81 1.78 9.86 0.48 1.45 1.39 -0.05 0.47 -4.78 1.11 0.91 1.11 1.31 96.64 2.13 98.77 
2.90 0.83 1.85 9.91 0.48 1.47 1.18 -0.05 0.51 -4.37 1.16 0.96 1.16 1.36 97.16 1.89 99.05 
2.95 0.86 1.93 9.96 0.47 1.50 0.98 -0.05 0.54 -3.94 1.20 1.00 1.20 1.40 97.59 1.71 99.31 
3.00 0.88 2.00 9.99 0.47 1.53 0.80 -0.06 0.57 -3.52 1.25 1.05 1.25 1.45 97.94 1.60 99.54 
3.05 0.90 2.08 10.02 0.47 1.56 0.65 -0.06 0.59 -3.12 1.29 1.09 1.29 1.49 98.22 1.53 99.75 
3.10 0.93 2.16 10.05 0.46 1.59 0.51 -0.06 0.61 -2.72 1.33 1.13 1.33 1.53 98.44 1.50 99.94 
3.15 0.95 2.24 10.06 0.46 1.62 0.39 -0.05 0.63 -2.35 1.36 1.16 1.36 1.56 98.60 1.49 100.10 
3.20 0.97 2.33 10.07 0.46 1.65 0.29 -0.05 0.64 -2.01 1.39 1.19 1.39 1.59 98.72 1.51 100.23 
3.25 0.99 2.41 10.08 0.46 1.68 0.21 -0.04 0.65 -1.70 1.42 1.22 1.42 1.62 98.80 1.54 100.35 
3.30 1.02 2.50 10.09 0.46 1.71 0.14 -0.04 0.65 -1.41 1.44 1.24 1.44 1.64 98.85 1.58 100.44 
3.35 1.04 2.59 10.09 0.45 1.75 0.08 -0.02 0.65 -1.16 1.46 1.26 1.46 1.66 98.88 1.63 100.51 
3.40 1.06 2.68 10.09 0.45 1.78 0.03 -0.01 0.64 -0.94 1.48 1.28 1.48 1.68 98.88 1.69 100.57 
3.45 1.09 2.77 10.09 0.45 1.81 -0.01 0.00 0.62 -0.75 1.50 1.30 1.50 1.70 98.87 1.74 100.61 
3.50 1.11 2.86 10.09 0.45 1.84 -0.03 0.02 0.60 -0.58 1.51 1.31 1.51 1.71 98.85 1.80 100.64 
3.55 1.13 2.95 10.08 0.46 1.87 -0.06 0.04 0.58 -0.44 1.52 1.32 1.52 1.72 98.81 1.85 100.67 
3.60 1.15 3.05 10.08 0.46 1.90 -0.07 0.06 0.55 -0.32 1.53 1.33 1.53 1.73 98.78 1.91 100.68 
3.65 1.18 3.15 10.07 0.46 1.92 -0.08 0.09 0.52 -0.22 1.54 1.34 1.54 1.74 98.73 1.96 100.69 
3.70 1.20 3.24 10.07 0.47 1.95 -0.09 0.12 0.49 -0.14 1.55 1.35 1.55 1.75 98.69 2.01 100.70 
3.75 1.23 3.34 10.07 0.48 1.97 -0.09 0.15 0.45 -0.07 1.55 1.35 1.55 1.75 98.64 2.06 100.70 
3.80 1.25 3.44 10.06 0.49 1.99 -0.09 0.18 0.41 -0.02 1.56 1.36 1.56 1.76 98.59 2.10 100.70 
3.85 1.28 3.54 10.06 0.50 2.01 -0.09 0.21 0.37 0.02 1.56 1.36 1.56 1.76 98.55 2.14 100.69 
3.90 1.30 3.65 10.05 0.51 2.02 -0.09 0.24 0.32 0.05 1.56 1.36 1.56 1.76 98.50 2.18 100.69 
3.95 1.33 3.75 10.05 0.52 2.04 -0.09 0.28 0.27 0.08 1.57 1.37 1.57 1.77 98.46 2.22 100.68 
4.00 1.35 3.85 10.04 0.54 2.05 -0.08 0.32 0.22 0.09 1.57 1.37 1.57 1.77 98.42 2.25 100.67 
4.05 1.38 3.95 10.04 0.56 2.06 -0.08 0.36 0.17 0.10 1.57 1.37 1.57 1.77 98.39 2.27 100.66 
4.10 1.41 4.06 10.04 0.58 2.06 -0.07 0.40 0.11 0.11 1.77 1.57 1.37 1.57 98.35 2.30 100.65 
4.15 1.44 4.16 10.03 0.60 2.07 -0.07 0.44 0.05 0.11 1.37 1.57 1.77 1.57 98.32 2.31 100.63 
4.20 1.47 4.26 10.03 0.62 2.07 -0.06 0.48 0.00 0.11 1.57 1.77 1.57 1.37 98.29 2.33 100.62 
4.25 1.51 4.37 10.03 0.65 2.06 -0.06 0.52 -0.05 0.11 1.57 1.77 1.57 1.37 98.26 2.34 100.60 
4.30 1.54 4.47 10.02 0.68 2.06 -0.05 0.56 -0.10 0.10 1.57 1.77 1.57 1.37 98.24 2.35 100.59 
4.35 1.58 4.57 10.02 0.71 2.05 -0.05 0.59 -0.15 0.10 1.57 1.77 1.57 1.37 98.22 2.35 100.57 
4.40 1.62 4.67 10.02 0.74 2.04 -0.04 0.62 -0.19 0.09 1.57 1.77 1.57 1.37 98.20 2.36 100.56 
4.45 1.66 4.77 10.02 0.77 2.03 -0.04 0.65 -0.24 0.08 1.57 1.77 1.57 1.37 98.18 2.36 100.54 
4.50 1.70 4.87 10.02 0.80 2.02 -0.03 0.68 -0.28 0.08 1.57 1.77 1.57 1.37 98.17 2.35 100.52 
4.55 1.74 4.97 10.02 0.84 2.00 -0.03 0.71 -0.32 0.07 1.57 1.77 1.57 1.37 98.15 2.35 100.50 
4.60 1.78 5.07 10.01 0.88 1.98 -0.03 0.73 -0.35 0.06 1.57 1.77 1.57 1.37 98.14 2.35 100.49 
4.65 1.83 5.17 10.01 0.91 1.96 -0.02 0.75 -0.39 0.06 1.57 1.77 1.57 1.37 98.13 2.34 100.47 
4.70 1.88 5.27 10.01 0.95 1.94 -0.02 0.77 -0.42 0.05 1.57 1.77 1.57 1.37 98.12 2.34 100.46 
4.75 1.93 5.36 10.01 0.99 1.92 -0.02 0.79 -0.46 0.04 1.57 1.77 1.57 1.37 98.11 2.33 100.44 
4.80 1.98 5.46 10.01 1.03 1.89 -0.02 0.81 -0.49 0.04 1.57 1.77 1.57 1.37 98.10 2.33 100.43 
4.85 2.04 5.55 10.01 1.07 1.87 -0.02 0.82 -0.51 0.04 1.57 1.77 1.57 1.37 98.09 2.32 100.41 
4.90 2.09 5.64 10.01 1.11 1.84 -0.01 0.84 -0.54 0.03 1.57 1.77 1.57 1.37 98.09 2.32 100.40 
4.95 2.15 5.73 10.01 1.16 1.81 -0.01 0.85 -0.56 0.03 1.57 1.77 1.57 1.37 98.08 2.31 100.39 
5.00 2.21 5.82 10.01 1.20 1.78 -0.01 0.86 -0.59 0.02 1.57 1.77 1.57 1.37 98.07 2.31 100.39 
5.05 2.28 5.91 10.01 1.24 1.75 -0.01 0.86 -0.61 0.02 1.57 1.77 1.57 1.37 98.07 2.31 100.38 
5.10 2.34 5.99 10.01 1.29 1.72 -0.01 0.87 -0.63 0.02 1.57 1.77 1.57 1.37 98.07 2.31 100.38 
5.15 2.41 6.08 10.01 1.33 1.69 -0.01 0.87 -0.64 0.02 1.57 1.77 1.57 1.37 98.06 2.31 100.37 
5.20 2.48 6.16 10.01 1.37 1.66 -0.01 0.87 -0.66 0.02 1.57 1.77 1.57 1.37 98.06 2.32 100.37 
5.25 2.55 6.24 10.01 1.42 1.62 -0.01 0.87 -0.67 0.02 1.56 1.76 1.56 1.36 98.05 2.32 100.38 
5.30 2.63 6.32 10.01 1.46 1.59 -0.01 0.87 -0.68 0.01 1.76 1.56 1.36 1.56 98.05 2.33 100.38 
5.35 2.70 6.39 10.00 1.50 1.55 -0.01 0.87 -0.70 0.01 1.56 1.76 1.56 1.36 98.05 2.34 100.39 
5.40 2.78 6.47 10.00 1.55 1.52 -0.01 0.86 -0.71 0.01 1.76 1.56 1.36 1.56 98.05 2.35 100.40 
5.45 2.86 6.54 10.00 1.59 1.48 -0.00 0.85 -0.72 0.01 1.56 1.76 1.56 1.36 98.04 2.36 100.41 
5.50 2.94 6.61 10.00 1.63 1.45 -0.00 0.84 -0.73 0.01 1.76 1.56 1.36 1.56 98.04 2.38 100.42 
5.55 3.03 6.68 10.00 1.67 1.41 -0.00 0.83 -0.75 0.01 1.56 1.76 1.56 1.36 98.04 2.39 100.43 
5.60 3.12 6.75 10.00 1.71 1.37 -0.00 0.82 -0.76 0.01 1.76 1.56 1.36 1.56 98.04 2.41 100.45 
5.65 3.20 6.82 10.00 1.76 1.33 -0.00 0.80 -0.77 0.01 1.56 1.76 1.56 1.36 98.04 2.43 100.46 
5.70 3.29 6.88 10.00 1.79 1.29 -0.00 0.79 -0.78 0.01 1.76 1.56 1.36 1.56 98.04 2.45 100.48 
5.75 3.39 6.94 10.00 1.83 1.25 -0.00 0.77 -0.80 0.01 1.56 1.76 1.56 1.36 98.03 2.47 100.50 
5.80 3.48 7.00 10.00 1.87 1.21 -0.00 0.75 -0.81 0.01 1.76 1.56 1.36 1.56 98.03 2.48 100.52 
5.85 3.58 7.06 10.00 1.91 1.17 -0.00 0.72 -0.82 0.00 1.76 1.57 1.37 1.56 98.03 2.50 100.54 
5.90 3.68 7.11 10.00 1.94 1.13 -0.00 0.70 -0.84 0.01 1.56 1.76 1.56 1.36 98.03 2.52 100.55 
5.95 3.78 7.17 10.00 1.97 1.09 -0.00 0.67 -0.85 0.01 1.76 1.56 1.36 1.56 98.03 2.54 100.57 
6.00 3.88 7.22 10.00 2.01 1.04 -0.00 0.64 -0.87 0.01 1.56 1.76 1.56 1.36 98.03 2.56 100.59 
6.05 3.98 7.27 10.00 2.04 1.00 -0.00 0.61 -0.88 0.01 1.76 1.56 1.36 1.56 98.03 2.57 100.61 
6.10 4.08 7.31 10.00 2.07 0.96 -0.00 0.58 -0.90 -0.03 1.62 1.71 1.51 1.42 98.03 2.59 100.62 
6.15 4.19 7.36 10.00 2.09 0.91 -0.00 0.55 -0.91 0.02 1.76 1.56 1.36 1.56 98.03 2.60 100.63 
6.20 4.30 7.40 10.00 2.12 0.86 -0.00 0.51 -0.93 0.01 1.56 1.76 1.56 1.36 98.03 2.62 100.65 
6.25 4.40 7.44 10.00 2.14 0.82 -0.00 0.47 -0.94 0.01 1.76 1.56 1.36 1.56 98.03 2.63 100.66 
6.30 4.51 7.48 10.00 2.16 0.77 -0.00 0.43 -0.96 -0.03 1.66 1.67 1.47 1.46 98.03 2.64 100.66 
6.35 4.62 7.51 10.00 2.18 0.72 -0.00 0.39 -0.98 0.02 1.77 1.57 1.37 1.57 98.03 2.64 100.67 
6.40 4.73 7.54 10.00 2.20 0.67 -0.00 0.34 -1.00 0.01 1.56 1.76 1.56 1.36 98.03 2.64 100.67 
6.45 4.84 7.57 10.00 2.22 0.62 0.00 0.30 -1.01 0.01 1.76 1.56 1.36 1.56 98.03 2.64 100.67 
6.50 4.95 7.60 10.00 2.23 0.57 0.00 0.25 -1.03 0.01 1.56 1.76 1.56 1.36 98.03 2.64 100.67 
6.55 5.07 7.62 10.00 2.24 0.51 0.00 0.20 -1.05 0.00 1.76 1.56 1.36 1.56 98.03 2.64 100.66 
6.60 5.18 7.65 10.00 2.25 0.46 0.00 0.15 -1.07 0.00 1.56 1.76 1.56 1.36 98.03 2.63 100.66 
6.65 5.29 7.67 10.00 2.25 0.41 0.00 0.10 -1.08 0.00 1.76 1.56 1.36 1.56 98.03 2.61 100.64 
6.70 5.40 7.68 10.00 2.25 0.35 0.00 0.04 -1.10 -0.00 1.56 1.76 1.56 1.36 98.03 2.60 100.63 
6.75 5.52 7.69 10.00 2.25 0.30 0.00 -0.02 -1.12 -0.00 1.76 1.56 1.36 1.56 98.03 2.58 100.61 
6.80 5.63 7.71 10.00 2.25 0.24 0.00 -0.08 -1.14 -0.00 1.36 1.56 1.76 1.56 98.03 2.55 100.58 
6.85 5.74 7.71 10.00 2.24 0.18 -0.00 -0.13 -1.15 -0.01 1.56 1.76 1.56 1.36 98.03 2.53 100.56 
6.90 5.85 7.72 10.00 2.23 0.12 -0.00 -0.19 -1.17 -0.01 1.56 1.36 1.56 1.76 98.03 2.50 100.53 
6.95 5.96 7.72 10.00 2.22 0.06 -0.00 -0.24 -1.19 -0.01 1.36 1.56 1.76 1.56 98.03 2.46 100.49 
7.00 6.07 7.72 10.00 2.20 0.00 -0.00 -0.30 -1.20 -0.01 1.36 1.56 1.76 1.56 98.03 2.43 100.46 
7.05 6.18 7.71 10.00 2.19 -0.06 -0.00 -0.35 -1.21 -0.01 1.36 1.56 1.76 1.56 98.03 2.39 100.42 
7.10 6.29 7.71 10.00 2.17 -0.12 -0.00 -0.40 -1.22 -0.01 1.36 1.56 1.76 1.56 98.03 2.35 100.38 
7.15 6.40 7.70 10.00 2.14 -0.18 -0.00 -0.45 -1.23 -0.01 1.37 1.57 1.77 1.57 98.02 2.32 100.34 
7.20 6.50 7.68 10.00 2.12 -0.24 -0.00 -0.49 -1.24 -0.01 1.37 1.57 1.77 1.57 98.02 2.28 100.30 
7.25 6.61 7.67 10.00 2.09 -0.30 -0.00 -0.54 -1.24 -0.01 1.37 1.57 1.77 1.57 98.02 2.24 100.26 
7.30 6.71 7.65 10.00 2.06 -0.37 -0.00 -0.58 -1.24 -0.01 1.37 1.57 1.77 1.57 98.02 2.20 100.22 
7.35 6.81 7.62 10.00 2.03 -0.43 -0.00 -0.62 -1.25 -0.01 1.37 1.57 1.77 1.57 98.02 2.16 100.18 
7.40 6.91 7.60 10.00 2.00 -0.49 -0.00 -0.66 -1.24 -0.01 1.37 1.57 1.77 1.57 98.01 2.12 100.14 
7.45 7.01 7.57 10.00 1.97 -0.55 -0.00 -0.70 -1.24 -0.00 1.37 1.57 1.77 1.57 98.01 2.08 100.10 
7.50 7.10 7.53 10.00 1.93 -0.61 -0.00 -0.73 -1.24 -0.00 1.37 1.57 1.77 1.57 98.01 2.05 100.06 
7.55 7.19 7.50 10.00 1.89 -0.68 -0.00 -0.76 -1.23 -0.00 1.37 1.57 1.77 1.57 98.01 2.02 100.02 
7.60 7.29 7.46 10.00 1.85 -0.74 -0.00 -0.79 -1.22 -0.00 1.37 1.57 1.77 1.57 98.01 1.98 99.99 
7.65 7.38 7.42 10.00 1.81 -0.80 -0.00 -0.82 -1.21 0.00 1.37 1.57 1.77 1.57 98.00 1.96 99.96 
7.70 7.46 7.38 10.00 1.77 -0.86 -0.00 -0.85 -1.20 0.00 1.37 1.57 1.77 1.57 98.00 1.93 99.93 
7.75 7.55 7.33 10.00 1.72 -0.92 -0.00 -0.88 -1.18 0.00 1.37 1.57 1.77 1.57 98.00 1.90 99.90 
7.80 7.63 7.28 10.00 1.68 -0.97 -0.00 -0.90 -1.17 0.00 1.37 1.57 1.77 1.57 98.00 1.88 99.88 
7.85 7.71 7.23 10.00 1.63 -1.03 -0.00 -0.92 -1.15 0.00 1.37 1.57 1.77 1.57 97.99 1.86 99.86 
7.90 7.79 7.17 10.00 1.59 -1.09 -0.00 -0.94 -1.13 0.01 1.37 1.57 1.77 1.57 97.99 1.85 99.84 
7.95 7.87 7.11 10.00 1.54 -1.14 -0.00 -0.96 -1.10 0.01 1.37 1.57 1.77 1.57 97.99 1.84 99.83 
8.00 7.94 7.05 10.00 1.49 -1.20 -0.00 -0.97 -1.08 0.01 1.57 1.77 1.57 1.37 97.99 1.83 99.81 
8.05 8.01 6.99 10.00 1.44 -1.25 -0.00 -0.99 -1.05 0.01 1.37 1.57 1.77 1.57 97.99 1.82 99.81 
8.10 8.08 6.92 10.00 1.39 -1.30 -0.00 -1.01 -1.02 0.01 1.57 1.77 1.57 1.37 97.99 1.81 99.80 
8.15 8.14 6.85 10.00 1.34 -1.35 -0.00 -1.03 -0.99 0.01 1.37 1.57 1.77 1.57 97.99 1.81 99.79 
8.20 8.21 6.78 10.00 1.29 -1.40 -0.00 -1.04 -0.96 0.01 1.57 1.77 1.57 1.37 97.99 1.81 99.79 
8.25 8.27 6.71 10.00 1.23 -1.45 -0.00 -1.06 -0.93 0.01 1.37 1.57 1.77 1.57 97.98 1.80 99.79 
8.30 8.32 6.63 10.00 1.18 -1.49 -0.00 -1.08 -0.89 0.01 1.57 1.77 1.57 1.37 97.98 1.81 99.79 
8.35 8.38 6.55 10.00 1.12 -1.53 -0.00 -1.10 -0.85 0.01 1.37 1.57 1.77 1.57 97.98 1.81 99.79 
8.40 8.43 6.47 10.00 1.07 -1.57 0.00 -1.11 -0.81 0.01 1.57 1.77 1.57 1.37 97.98 1.81 99.79 
8.45 8.48 6.39 10.00 1.01 -1.61 0.00 -1.13 -0.77 0.01 1.37 1.57 1.77 1.57 97.98 1.81 99.80 
8.50 8.53 6.31 10.00 0.95 -1.65 0.00 -1.15 -0.73 0.01 1.57 1.77 1.57 1.37 97.99 1.82 99.80 
8.55 8.57 6.22 10.00 0.90 -1.68 0.00 -1.16 -0.68 0.01 1.37 1.57 1.77 1.57 97.99 1.82 99.80 
8.60 8.61 6.14 10.00 0.84 -1.71 0.00 -1.18 -0.64 0.01 1.57 1.77 1.57 1.37 97.99 1.82 99.81 
8.65 8.65 6.05 10.00 0.78 -1.74 0.00 -1.20 -0.59 0.00 1.37 1.57 1.77 1.57 97.99 1.82 99.81 
8.70 8.68 5.96 10.00 0.72 -1.77 0.00 -1.21 -0.53 0.00 1.57 1.77 1.57 1.37 97.99 1.82 99.81 
8.75 8.71 5.87 10.00 0.66 -1.79 0.00 -1.23 -0.48 0.00 1.37 1.57 1.77 1.57 97.99 1.83 99.81 
8.80 8.74 5.78 10.00 0.59 -1.82 0.00 -1.25 -0.43 0.00 1.57 1.77 1.57 1.37 97.99 1.83 99.82 
8.85 8.77 5.69 10.00 0.53 -1.83 0.00 -1.27 -0.37 0.00 1.57 1.37 1.57 1.77 97.99 1.82 99.81 
8.90 8.79 5.59 10.00 0.47 -1.85 0.00 -1.28 -0.32 -0.00 1.57 1.37 1.57 1.77 97.99 1.82 99.81 
8.95 8.81 5.50 10.00 0.40 -1.86 0.00 -1.30 -0.27 -0.00 1.57 1.37 1.57 1.77 97.99 1.82 99.81 
9.00 8.82 5.40 10.00 0.34 -1.87 0.00 -1.31 -0.22 -0.00 1.57 1.37 1.57 1.77 97.99 1.81 99.81 
9.05 8.83 5.31 10.00 0.27 -1.88 0.00 -1.32 -0.17 -0.00 1.57 1.37 1.57 1.77 97.99 1.81 99.80 
9.10 8.84 5.22 10.00 0.20 -1.89 0.00 -1.32 -0.12 -0.00 1.57 1.37 1.57 1.77 98.00 1.81 99.80 
9.15 8.85 5.12 10.00 0.14 -1.89 0.00 -1.33 -0.08 -0.00 1.37 1.57 1.77 1.57 98.00 1.80 99.80 
9.20 8.85 5.03 10.00 0.07 -1.89 0.00 -1.33 -0.03 -0.00 1.57 1.37 1.57 1.77 98.00 1.80 99.79 
9.25 8.85 4.93 10.00 0.00 -1.89 0.00 -1.34 0.01 -0.00 1.57 1.37 1.57 1.77 98.00 1.79 99.79 
9.30 8.84 4.84 10.00 -0.06 -1.89 0.00 -1.34 0.05 -0.00 1.37 1.57 1.77 1.57 98.00 1.79 99.79 
9.35 8.83 4.74 10.00 -0.13 -1.89 0.00 -1.33 0.10 -0.00 1.57 1.37 1.57 1.77 98.00 1.79 99.79 
9.40 8.82 4.65 10.00 -0.20 -1.88 0.00 -1.33 0.14 -0.00 1.57 1.37 1.57 1.77 98.00 1.79 99.78 
9.45 8.81 4.56 10.00 -0.26 -1.87 0.00 -1.32 0.18 -0.00 1.37 1.57 1.77 1.57 98.00 1.78 99.78 
9.50 8.79 4.46 10.00 -0.33 -1.86 0.00 -1.32 0.22 -0.00 1.57 1.37 1.57 1.77 98.00 1.78 99.78 
9.55 8.77 4.37 10.00 -0.39 -1.85 0.00 -1.31 0.26 -0.00 1.57 1.37 1.57 1.77 98.00 1.78 99.78 
9.60 8.74 4.28 10.00 -0.46 -1.83 0.00 -1.30 0.30 -0.00 1.37 1.57 1.77 1.57 98.00 1.78 99.78 
9.65 8.72 4.19 10.00 -0.52 -1.81 0.00 -1.28 0.34 -0.00 1.57 1.37 1.57 1.77 98.00 1.78 99.78 
9.70 8.69 4.10 10.00 -0.59 -1.80 -0.00 -1.26 0.38 -0.03 1.52 1.41 1.61 1.72 98.00 1.78 99.78 
9.75 8.65 4.01 10.00 -0.65 -1.78 -0.00 -1.25 0.42 0.01 1.37 1.57 1.77 1.57 98.00 1.79 99.78 
9.80 8.61 3.92 10.00 -0.71 -1.75 -0.00 -1.23 0.46 0.00 1.57 1.37 1.57 1.77 98.00 1.79 99.78 
9.85 8.57 3.84 10.00 -0.77 -1.73 0.00 -1.21 0.49 0.01 1.57 1.37 1.57 1.77 98.00 1.79 99.79 
9.90 8.53 3.75 10.00 -0.83 -1.70 0.00 -1.19 0.53 0.00 1.37 1.57 1.77 1.57 98.00 1.79 99.79 
9.95 8.49 3.67 10.00 -0.89 -1.67 0.00 -1.16 0.57 0.00 1.57 1.37 1.57 1.77 98.00 1.79 99.79 
10.00 8.44 3.59 10.00 -0.95 -1.64 -0.00 -1.13 0.60 -0.03 1.42 1.52 1.72 1.62 98.00 1.80 99.79 
10.05 8.39 3.51 10.00 -1.00 -1.61 -0.00 -1.11 0.64 0.02 1.57 1.37 1.57 1.77 98.00 1.80 99.80 
10.10 8.33 3.43 10.00 -1.05 -1.58 -0.00 -1.08 0.67 -0.02 1.41 1.52 1.72 1.61 98.00 1.80 99.80 
10.15 8.27 3.36 10.00 -1.11 -1.54 -0.00 -1.05 0.71 0.02 1.57 1.37 1.57 1.77 98.00 1.80 99.80 
10.20 8.22 3.28 10.00 -1.16 -1.51 -0.00 -1.01 0.74 -0.03 1.45 1.48 1.68 1.65 98.00 1.80 99.80 
10.25 8.15 3.21 10.00 -1.21 -1.47 -0.00 -0.98 0.77 0.02 1.77 1.57 1.37 1.57 98.00 1.80 99.80 
10.30 8.09 3.14 10.00 -1.25 -1.43 0.00 -0.95 0.81 0.01 1.57 1.37 1.57 1.77 98.00 1.80 99.80 
10.35 8.02 3.07 10.00 -1.30 -1.38 0.00 -0.91 0.83 0.01 1.57 1.37 1.57 1.77 98.00 1.80 99.80 
10.40 7.96 3.00 10.00 -1.34 -1.34 0.00 -0.87 0.86 0.01 1.57 1.77 1.57 1.37 98.00 1.80 99.80 
10.45 7.89 2.94 10.00 -1.38 -1.30 0.00 -0.84 0.89 0.01 1.77 1.57 1.37 1.57 98.00 1.80 99.80 
10.50 7.81 2.88 10.00 -1.42 -1.25 0.00 -0.80 0.92 0.00 1.57 1.37 1.57 1.77 98.00 1.80 99.80 
10.55 7.74 2.82 10.00 -1.46 -1.20 0.00 -0.77 0.94 -0.03 1.63 1.43 1.50 1.70 98.00 1.80 99.80 
10.60 7.66 2.76 10.00 -1.50 -1.16 0.00 -0.73 0.97 0.02 1.57 1.37 1.57 1.77 98.00 1.79 99.79 
10.65 7.59 2.71 10.00 -1.53 -1.11 0.00 -0.69 0.99 0.01 1.77 1.57 1.37 1.57 98.00 1.79 99.79 
10.70 7.51 2.66 10.00 -1.57 -1.06 0.00 -0.66 1.01 0.01 1.57 1.37 1.57 1.77 98.00 1.79 99.79 
10.75 7.43 2.61 10.00 -1.60 -1.00 0.00 -0.62 1.03 0.00 1.57 1.37 1.57 1.77 98.00 1.78 99.79 
10.80 7.34 2.56 10.00 -1.63 -0.95 0.00 -0.58 1.04 0.00 1.76 1.56 1.36 1.56 98.00 1.78 99.78 
10.85 7.26 2.52 10.00 -1.65 -0.90 0.00 -0.54 1.06 0.00 1.56 1.36 1.56 1.76 98.01 1.77 99.78 
10.90 7.18 2.48 10.00 -1.68 -0.85 0.00 -0.50 1.07 0.00 1.56 1.36 1.56 1.76 98.01 1.77 99.78 
10.95 7.09 2.44 10.00 -1.70 -0.79 0.00 -0.46 1.08 0.00 1.76 1.56 1.36 1.56 98.01 1.76 99.77 
11.00 7.00 2.41 10.00 -1.72 -0.74 0.00 -0.42 1.09 0.00 1.56 1.36 1.56 1.76 98.01 1.76 99.77 
11.05 6.92 2.37 10.00 -1.74 -0.68 0.00 -0.38 1.10 0.00 1.56 1.76 1.56 1.36 98.01 1.75 99.76 
11.10 6.83 2.34 10.00 -1.76 -0.63 0.00 -0.34 1.11 -0.00 1.76 1.56 1.36 1.56 98.01 1.75 99.76 
11.15 6.74 2.32 10.00 -1.78 -0.57 0.00 -0.31 1.11 -0.00 1.56 1.36 1.56 1.76 98.01 1.74 99.75 
11.20 6.65 2.29 10.00 -1.79 -0.52 0.00 -0.27 1.12 -0.00 1.76 1.56 1.36 1.56 98.01 1.73 99.75 
11.25 6.56 2.27 10.00 -1.80 -0.46 0.00 -0.23 1.12 -0.00 1.56 1.36 1.56 1.76 98.02 1.73 99.74 
11.30 6.47 2.25 10.00 -1.81 -0.40 0.00 -0.19 1.12 -0.00 1.76 1.56 1.36 1.56 98.02 1.72 99.74 
11.35 6.38 2.23 10.00 -1.82 -0.35 0.00 -0.15 1.12 -0.00 1.56 1.36 1.56 1.76 98.02 1.71 99.73 
11.40 6.28 2.22 10.00 -1.82 -0.29 0.00 -0.11 1.12 -0.00 1.56 1.36 1.56 1.76 98.02 1.70 99.72 
11.45 6.19 2.21 10.00 -1.83 -0.24 0.00 -0.07 1.11 -0.00 1.56 1.76 1.56 1.36 98.02 1.70 99.72 
11.50 6.10 2.20 10.00 -1.83 -0.18 0.00 -0.03 1.11 -0.00 1.76 1.56 1.36 1.56 98.02 1.69 99.71 
11.55 6.01 2.20 10.00 -1.83 -0.12 0.00 0.01 1.11 -0.00 1.56 1.36 1.56 1.76 98.02 1.68 99.70 
11.60 5.92 2.20 10.00 -1.83 -0.07 0.00 0.05 1.10 -0.03 1.72 1.61 1.41 1.52 98.02 1.67 99.69 
11.65 5.83 2.20 10.00 -1.82 -0.02 0.00 0.08 1.09 0.01 1.76 1.56 1.36 1.56 98.02 1.66 99.68 
11.70 5.74 2.20 10.00 -1.82 0.04 0.00 0.12 1.08 0.00 1.56 1.36 1.56 1.76 98.02 1.65 99.67 
11.75 5.65 2.21 10.00 -1.81 0.09 0.00 0.16 1.07 0.00 1.56 1.76 1.56 1.36 98.02 1.64 99.66 
11.80 5.56 2.22 10.00 -1.80 0.15 0.00 0.19 1.07 0.00 1.76 1.56 1.36 1.56 98.02 1.63 99.65 
11.85 5.47 2.23 10.00 -1.79 0.20 0.00 0.22 1.05 0.00 1.56 1.36 1.56 1.76 98.02 1.62 99.64 
11.90 5.38 2.24 10.00 -1.77 0.25 0.00 0.26 1.04 0.00 1.76 1.56 1.36 1.56 98.03 1.60 99.63 
11.95 5.29 2.26 10.00 -1.76 0.30 0.00 0.29 1.03 0.00 1.56 1.36 1.56 1.76 98.03 1.59 99.62 
12.00 5.21 2.28 10.00 -1.74 0.35 0.00 0.33 1.01 0.00 1.56 1.76 1.56 1.36 98.03 1.58 99.61 
12.05 5.12 2.30 10.00 -1.72 0.40 0.00 0.36 0.99 -0.00 1.76 1.56 1.36 1.56 98.03 1.57 99.60 
12.10 5.04 2.32 10.00 -1.70 0.45 0.00 0.39 0.98 -0.00 1.76 1.56 1.36 1.56 98.03 1.55 99.58 
12.15 4.95 2.35 10.00 -1.68 0.50 0.00 0.42 0.96 -0.00 1.56 1.36 1.56 1.76 98.03 1.54 99.57 
12.20 4.87 2.38 10.00 -1.66 0.55 0.00 0.46 0.94 -0.00 1.56 1.76 1.56 1.36 98.03 1.53 99.56 
12.25 4.79 2.41 10.00 -1.64 0.59 0.00 0.49 0.92 -0.00 1.76 1.56 1.36 1.56 98.03 1.51 99.54 
12.30 4.71 2.44 10.00 -1.61 0.64 0.00 0.51 0.90 -0.00 1.76 1.56 1.36 1.56 98.03 1.50 99.53 
12.35 4.63 2.47 10.00 -1.58 0.68 0.00 0.54 0.88 -0.00 1.56 1.36 1.56 1.76 98.03 1.49 99.52 
12.40 4.55 2.51 10.00 -1.56 0.72 0.00 0.57 0.85 -0.00 1.56 1.76 1.56 1.36 98.03 1.47 99.50 
12.45 4.48 2.55 10.00 -1.53 0.76 0.00 0.59 0.83 -0.00 1.76 1.56 1.36 1.56 98.03 1.46 99.49 
12.50 4.40 2.59 10.00 -1.49 0.81 0.00 0.62 0.81 -0.00 1.56 1.36 1.56 1.76 98.03 1.44 99.48 
12.55 4.33 2.64 10.00 -1.46 0.84 0.00 0.64 0.78 -0.00 1.56 1.76 1.56 1.36 98.04 1.43 99.46 
12.60 4.26 2.68 10.00 -1.43 0.88 0.00 0.67 0.76 -0.00 1.76 1.56 1.36 1.56 98.04 1.41 99.45 
12.65 4.19 2.73 10.00 -1.40 0.92 -0.00 0.68 0.73 -0.05 1.55 1.68 1.58 1.45 98.03 1.40 99.43 
12.70 4.12 2.78 10.00 -1.36 0.95 -0.00 0.71 0.71 0.02 1.76 1.56 1.36 1.56 98.03 1.38 99.41 
12.75 4.06 2.83 10.00 -1.32 0.99 0.00 0.73 0.68 0.01 1.56 1.36 1.56 1.76 98.03 1.36 99.40 
12.80 4.00 2.88 10.00 -1.29 1.02 0.00 0.75 0.65 0.01 1.56 1.76 1.56 1.36 98.04 1.35 99.38 
12.85 3.93 2.93 10.00 -1.25 1.05 0.00 0.77 0.62 0.01 1.76 1.56 1.36 1.56 98.04 1.33 99.37 
12.90 3.87 2.99 10.00 -1.21 1.08 0.00 0.79 0.60 0.00 1.56 1.76 1.56 1.36 98.04 1.31 99.35 
12.95 3.82 3.04 10.00 -1.17 1.11 0.00 0.80 0.57 0.00 1.76 1.56 1.36 1.56 98.04 1.30 99.33 
13.00 3.76 3.10 10.00 -1.13 1.14 0.00 0.81 0.54 0.00 1.56 1.36 1.56 1.76 98.04 1.28 99.32 
13.05 3.71 3.16 10.00 -1.09 1.16 0.00 0.83 0.51 0.00 1.56 1.76 1.56 1.36 98.04 1.27 99.30 
13.10 3.66 3.22 10.00 -1.04 1.19 0.00 0.84 0.48 0.00 1.76 1.56 1.36 1.56 98.04 1.25 99.29 
13.15 3.61 3.28 10.00 -1.00 1.21 0.00 0.85 0.45 0.00 1.36 1.56 1.76 1.56 98.04 1.23 99.27 
13.20 3.56 3.34 10.00 -0.96 1.23 0.00 0.87 0.42 0.00 1.56 1.76 1.56 1.36 98.04 1.22 99.26 
13.25 3.52 3.40 10.00 -0.91 1.25 0.00 0.88 0.40 -0.00 1.76 1.56 1.36 1.56 98.04 1.20 99.24 
13.30 3.47 3.47 10.00 -0.87 1.27 0.00 0.89 0.37 -0.00 1.56 1.76 1.56 1.36 98.04 1.18 99.22 
13.35 3.43 3.53 10.00 -0.83 1.29 0.00 0.89 0.34 -0.00 1.76 1.56 1.36 1.56 98.04 1.17 99.21 
13.40 3.40 3.60 10.00 -0.78 1.30 0.00 0.90 0.31 -0.00 1.76 1.56 1.36 1.56 98.04 1.15 99.19 
13.45 3.36 3.66 10.00 -0.74 1.32 0.00 0.90 0.28 -0.00 1.56 1.36 1.56 1.76 98.04 1.13 99.18 
13.50 3.33 3.73 10.00 -0.69 1.33 0.00 0.91 0.25 -0.00 1.56 1.76 1.56 1.36 98.04 1.12 99.16 
13.55 3.30 3.80 10.00 -0.64 1.34 0.00 0.91 0.22 -0.00 1.56 1.76 1.56 1.36 98.04 1.10 99.15 
13.60 3.27 3.87 10.00 -0.60 1.35 0.00 0.91 0.19 -0.00 1.76 1.56 1.36 1.56 98.04 1.09 99.13 
13.65 3.24 3.93 10.00 -0.55 1.36 0.00 0.91 0.16 -0.01 1.38 1.54 1.74 1.58 98.04 1.07 99.12 
13.70 3.22 4.00 10.00 -0.51 1.36 0.00 0.92 0.13 0.00 1.56 1.76 1.56 1.36 98.05 1.06 99.10 
13.75 3.19 4.07 10.00 -0.46 1.37 0.00 0.92 0.11 0.00 1.76 1.56 1.36 1.56 98.05 1.04 99.09 
13.80 3.18 4.14 10.00 -0.42 1.37 -0.00 0.91 0.08 -0.04 1.68 1.64 1.44 1.48 98.04 1.03 99.07 
13.85 3.16 4.21 10.00 -0.37 1.37 -0.00 0.91 0.05 -0.01 1.71 1.51 1.41 1.61 98.04 1.01 99.06 
13.90 3.14 4.28 10.00 -0.32 1.38 -0.00 0.91 0.02 0.02 1.36 1.56 1.76 1.56 98.04 1.00 99.04 
13.95 3.13 4.35 10.00 -0.28 1.38 -0.00 0.91 -0.01 0.01 1.56 1.76 1.56 1.36 98.04 0.98 99.03 
14.00 3.12 4.41 10.00 -0.23 1.37 0.00 0.90 -0.04 0.01 1.76 1.56 1.36 1.56 98.04 0.97 99.01 
14.05 3.11 4.48 10.00 -0.19 1.37 0.00 0.89 -0.07 0.01 1.36 1.56 1.76 1.56 98.04 0.96 99.00 
14.10 3.11 4.55 10.00 -0.14 1.37 0.00 0.89 -0.09 0.01 1.56 1.76 1.56 1.36 98.04 0.94 98.99 
14.15 3.10 4.62 10.00 -0.10 1.36 0.00 0.88 -0.12 0.00 1.76 1.56 1.36 1.56 98.05 0.93 98.97 
14.20 3.10 4.69 10.00 -0.06 1.35 0.00 0.87 -0.14 0.00 1.56 1.76 1.56 1.36 98.05 0.92 98.96 
14.25 3.10 4.75 10.00 -0.01 1.34 0.00 0.86 -0.17 0.00 1.76 1.56 1.36 1.56 98.05 0.90 98.95 
14.30 3.10 4.82 10.00 0.03 1.33 0.00 0.85 -0.20 0.00 1.36 1.56 1.76 1.56 98.05 0.89 98.94 
14.35 3.11 4.89 10.00 0.07 1.32 0.00 0.84 -0.22 0.00 1.56 1.76 1.56 1.36 98.05 0.88 98.93 
14.40 3.11 4.95 10.00 0.11 1.31 0.00 0.83 -0.24 0.00 1.76 1.56 1.36 1.56 98.05 0.87 98.91 
14.45 3.12 5.02 10.01 0.15 1.30 0.00 0.81 -0.27 0.00 1.36 1.56 1.76 1.56 98.05 0.85 98.90 
14.50 3.13 5.08 10.01 0.19 1.28 0.00 0.80 -0.29 0.00 1.56 1.76 1.56 1.36 98.05 0.84 98.89 
14.55 3.15 5.14 10.01 0.23 1.27 0.00 0.79 -0.31 -0.00 1.76 1.56 1.36 1.56 98.05 0.83 98.88 
14.60 3.16 5.20 10.01 0.27 1.25 0.00 0.77 -0.33 -0.00 1.36 1.56 1.76 1.56 98.05 0.82 98.87 
14.65 3.18 5.27 10.01 0.31 1.23 0.00 0.76 -0.36 -0.00 1.56 1.76 1.56 1.36 98.05 0.81 98.86 
14.70 3.19 5.33 10.01 0.35 1.21 0.00 0.74 -0.37 -0.00 1.76 1.56 1.36 1.56 98.05 0.80 98.85 
14.75 3.21 5.39 10.01 0.38 1.20 -0.00 0.72 -0.39 -0.04 1.49 1.43 1.63 1.69 98.05 0.79 98.84 
14.80 3.24 5.44 10.01 0.42 1.17 0.00 0.71 -0.42 0.01 1.56 1.76 1.56 1.36 98.05 0.78 98.83 
14.85 3.26 5.50 10.01 0.45 1.15 0.00 0.69 -0.44 0.00 1.76 1.56 1.36 1.56 98.05 0.77 98.82 
14.90 3.28 5.56 10.01 0.48 1.13 0.00 0.67 -0.46 0.00 1.36 1.56 1.76 1.56 98.05 0.76 98.81 
14.95 3.31 5.61 10.01 0.52 1.11 0.00 0.65 -0.48 0.00 1.56 1.76 1.56 1.36 98.05 0.74 98.80 
15.00 3.34 5.66 10.01 0.55 1.08 0.00 0.63 -0.50 -0.00 1.55 1.37 1.57 1.75 98.05 0.73 98.79 
15.05 3.37 5.72 10.01 0.58 1.05 0.00 0.62 -0.52 0.00 1.36 1.56 1.76 1.56 98.06 0.72 98.78 
15.10 3.40 5.77 10.01 0.61 1.03 0.00 0.60 -0.53 0.00 1.56 1.76 1.56 1.36 98.06 0.71 98.77 
15.15 3.43 5.82 10.01 0.64 1.00 0.00 0.58 -0.55 0.00 1.56 1.76 1.56 1.36 98.06 0.70 98.76 
15.20 3.47 5.86 10.01 0.67 0.97 0.00 0.56 -0.56 0.00 1.56 1.76 1.56 1.36 98.06 0.70 98.75 
15.25 3.50 5.91 10.01 0.69 0.94 0.00 0.54 -0.57 0.00 1.76 1.56 1.36 1.56 98.06 0.69 98.74 
15.30 3.54 5.96 10.01 0.72 0.91 0.00 0.52 -0.59 0.00 1.36 1.56 1.76 1.56 98.06 0.68 98.74 
15.35 3.58 6.00 10.01 0.75 0.88 0.00 0.50 -0.60 0.00 1.56 1.76 1.56 1.36 98.06 0.67 98.73 
15.40 3.62 6.04 10.01 0.77 0.85 0.00 0.47 -0.61 0.00 1.76 1.56 1.36 1.56 98.06 0.66 98.72 
15.45 3.66 6.08 10.01 0.79 0.82 0.00 0.45 -0.62 0.00 1.36 1.56 1.76 1.56 98.06 0.65 98.71 
15.50 3.70 6.12 10.01 0.81 0.79 0.00 0.42 -0.63 -0.00 1.56 1.76 1.56 1.36 98.06 0.64 98.70 
15.55 3.74 6.16 10.01 0.83 0.76 0.00 0.40 -0.64 0.00 1.56 1.36 1.56 1.76 98.06 0.63 98.70 
15.60 3.78 6.19 10.01 0.85 0.73 0.00 0.38 -0.65 -0.00 1.36 1.56 1.76 1.56 98.06 0.63 98.69 
15.65 3.83 6.23 10.01 0.87 0.69 0.00 0.36 -0.66 -0.00 1.56 1.76 1.56 1.36 98.06 0.62 98.68 
15.70 3.87 6.26 10.01 0.89 0.66 0.00 0.33 -0.66 -0.00 1.56 1.36 1.56 1.76 98.06 0.61 98.67 
15.75 3.92 6.29 10.01 0.90 0.63 0.00 0.31 -0.67 -0.00 1.36 1.56 1.76 1.56 98.06 0.60 98.67 
15.80 3.96 6.32 10.01 0.92 0.59 0.00 0.29 -0.68 -0.00 1.56 1.76 1.56 1.36 98.06 0.60 98.66 
15.85 4.01 6.35 10.01 0.93 0.56 0.00 0.27 -0.68 -0.00 1.56 1.76 1.56 1.36 98.06 0.59 98.65 
15.90 4.06 6.37 10.01 0.94 0.52 0.00 0.25 -0.68 -0.00 1.76 1.56 1.36 1.56 98.07 0.58 98.65 
15.95 4.11 6.39 10.01 0.95 0.49 0.00 0.22 -0.69 -0.00 1.36 1.56 1.76 1.56 98.07 0.57 98.64 
16.00 4.15 6.42 10.01 0.96 0.46 0.00 0.20 -0.69 -0.00 1.56 1.76 1.56 1.36 98.07 0.57 98.63 
16.05 4.20 6.44 10.01 0.97 0.42 0.00 0.17 -0.69 -0.00 1.56 1.36 1.56 1.76 98.07 0.56 98.63 
16.10 4.25 6.46 10.01 0.98 0.39 0.00 0.15 -0.70 -0.00 1.36 1.56 1.76 1.56 98.07 0.55 98.62 
16.15 4.30 6.47 10.01 0.99 0.35 0.00 0.13 -0.70 -0.00 1.56 1.76 1.56 1.36 98.07 0.55 98.62 
16.20 4.35 6.49 10.01 0.99 0.32 0.00 0.11 -0.69 -0.00 1.56 1.36 1.56 1.76 98.07 0.54 98.61 
16.25 4.40 6.50 10.01 1.00 0.28 0.00 0.09 -0.70 -0.00 1.36 1.56 1.76 1.56 98.07 0.54 98.60 
16.30 4.45 6.51 10.01 1.00 0.25 0.00 0.07 -0.69 -0.00 1.56 1.76 1.56 1.36 98.07 0.53 98.60 
16.35 4.50 6.52 10.01 1.00 0.21 0.00 0.05 -0.69 -0.00 1.56 1.76 1.56 1.36 98.07 0.52 98.59 
16.40 4.55 6.53 10.01 1.00 0.18 0.00 0.02 -0.68 -0.00 1.56 1.36 1.56 1.76 98.07 0.52 98.59 
16.45 4.60 6.54 10.01 1.00 0.14 0.00 0.00 -0.68 -0.00 1.36 1.56 1.76 1.56 98.07 0.51 98.58 
16.50 4.65 6.54 10.01 1.00 0.11 0.00 -0.02 -0.68 -0.00 1.56 1.76 1.56 1.36 98.07 0.51 98.58 
16.55 4.70 6.54 10.01 1.00 0.08 0.00 -0.04 -0.67 -0.00 1.76 1.56 1.36 1.56 98.07 0.50 98.57 
16.60 4.75 6.55 10.01 1.00 0.04 0.00 -0.06 -0.67 -0.00 1.36 1.56 1.76 1.56 98.07 0.50 98.57 
16.65 4.80 6.54 10.01 0.99 0.01 0.00 -0.08 -0.66 -0.00 1.56 1.76 1.56 1.36 98.07 0.49 98.56 
16.70 4.85 6.54 10.01 0.99 -0.02 0.00 -0.11 -0.65 -0.00 1.56 1.36 1.56 1.76 98.07 0.49 98.56 
16.75 4.90 6.54 10.01 0.98 -0.05 0.00 -0.13 -0.64 -0.00 1.36 1.56 1.76 1.56 98.07 0.48 98.55 
16.80 4.95 6.53 10.01 0.97 -0.08 0.00 -0.15 -0.63 -0.00 1.56 1.76 1.56 1.36 98.07 0.48 98.55 
16.85 4.99 6.53 10.01 0.96 -0.12 0.00 -0.17 -0.62 -0.00 1.56 1.36 1.56 1.76 98.07 0.47 98.55 
16.90 5.04 6.52 10.01 0.96 -0.15 0.00 -0.19 -0.61 -0.00 1.36 1.56 1.76 1.56 98.07 0.47 98.54 
16.95 5.09 6.51 10.01 0.95 -0.18 0.00 -0.20 -0.60 -0.00 1.56 1.76 1.56 1.36 98.07 0.46 98.54 
17.00 5.14 6.50 10.01 0.93 -0.21 0.00 -0.22 -0.59 -0.00 1.56 1.36 1.56 1.76 98.07 0.46 98.53 
17.05 5.18 6.49 10.01 0.92 -0.24 0.00 -0.24 -0.58 -0.00 1.36 1.56 1.76 1.56 98.07 0.45 98.53 
17.10 5.23 6.47 10.01 0.91 -0.26 0.00 -0.25 -0.57 -0.00 1.56 1.76 1.56 1.36 98.07 0.45 98.52 
17.15 5.27 6.46 10.01 0.90 -0.29 0.00 -0.27 -0.55 0.00 1.76 1.56 1.36 1.56 98.07 0.44 98.52 
17.20 5.31 6.44 10.01 0.88 -0.32 0.00 -0.29 -0.54 -0.00 1.56 1.36 1.56 1.76 98.08 0.44 98.51 
17.25 5.36 6.42 10.01 0.87 -0.34 0.00 -0.31 -0.53 -0.00 1.36 1.56 1.76 1.56 98.08 0.43 98.51 
17.30 5.40 6.40 10.01 0.85 -0.37 0.00 -0.32 -0.52 -0.00 1.36 1.56 1.76 1.56 98.08 0.43 98.51 
17.35 5.44 6.38 10.01 0.83 -0.40 0.00 -0.34 -0.50 -0.00 1.56 1.76 1.56 1.36 98.08 0.42 98.50 
17.40 5.48 6.36 10.01 0.82 -0.42 0.00 -0.35 -0.49 -0.00 1.56 1.36 1.56 1.76 98.08 0.42 98.50 
17.45 5.52 6.34 10.01 0.80 -0.44 0.00 -0.37 -0.47 -0.00 1.36 1.56 1.76 1.56 98.08 0.42 98.49 
17.50 5.56 6.32 10.01 0.78 -0.47 -0.00 -0.38 -0.45 -0.03 1.61 1.71 1.51 1.41 98.08 0.41 98.49 
17.55 5.60 6.29 10.01 0.76 -0.49 -0.00 -0.39 -0.44 0.01 1.56 1.36 1.56 1.76 98.08 0.41 98.48 
17.60 5.63 6.26 10.01 0.74 -0.51 -0.00 -0.40 -0.42 0.00 1.36 1.56 1.76 1.56 98.08 0.40 98.48 
17.65 5.67 6.24 10.01 0.72 -0.53 0.00 -0.41 -0.41 0.00 1.76 1.56 1.36 1.56 98.08 0.40 98.47 
17.70 5.70 6.21 10.01 0.70 -0.55 0.00 -0.42 -0.39 0.00 1.56 1.36 1.56 1.76 98.08 0.39 98.47 
17.75 5.74 6.18 10.01 0.67 -0.57 0.00 -0.43 -0.38 0.00 1.36 1.56 1.76 1.56 98.08 0.39 98.47 
17.80 5.77 6.15 10.01 0.65 -0.59 0.00 -0.44 -0.36 0.00 1.56 1.76 1.56 1.36 98.08 0.38 98.46 
17.85 5.80 6.12 10.01 0.63 -0.60 0.00 -0.45 -0.34 0.00 1.56 1.36 1.56 1.76 98.08 0.38 98.46 
17.90 5.83 6.09 10.01 0.61 -0.62 0.00 -0.46 -0.33 0.00 1.36 1.56 1.76 1.56 98.08 0.38 98.45 
17.95 5.86 6.06 10.01 0.58 -0.64 0.00 -0.46 -0.31 0.00 1.56 1.76 1.56 1.36 98.08 0.37 98.45 
18.00 5.88 6.02 10.01 0.56 -0.65 0.00 -0.47 -0.29 0.00 1.76 1.56 1.36 1.56 98.08 0.37 98.45 
18.05 5.91 5.99 10.01 0.54 -0.66 0.00 -0.48 -0.28 0.00 1.56 1.36 1.56 1.76 98.08 0.36 98.44 
18.10 5.94 5.96 10.01 0.51 -0.68 0.00 -0.49 -0.26 -0.00 1.36 1.56 1.76 1.56 98.08 0.36 98.44 
18.15 5.96 5.92 10.01 0.49 -0.69 0.00 -0.49 -0.24 -0.00 1.56 1.36 1.56 1.76 98.08 0.36 98.44 
18.20 5.98 5.89 10.01 0.46 -0.70 0.00 -0.50 -0.23 -0.00 1.36 1.56 1.76 1.56 98.08 0.35 98.43 
18.25 6.00 5.85 10.01 0.44 -0.71 0.00 -0.50 -0.21 -0.00 1.56 1.76 1.56 1.36 98.08 0.35 98.43 
18.30 6.02 5.81 10.01 0.41 -0.72 -0.00 -0.50 -0.19 -0.04 1.66 1.46 1.46 1.66 98.08 0.34 98.42 
18.35 6.04 5.78 10.01 0.39 -0.73 -0.00 -0.51 -0.18 0.02 1.56 1.36 1.56 1.76 98.08 0.34 98.42 
18.40 6.06 5.74 10.01 0.36 -0.74 -0.00 -0.51 -0.16 0.01 1.36 1.56 1.76 1.56 98.08 0.34 98.42 
18.45 6.08 5.70 10.01 0.34 -0.74 -0.00 -0.51 -0.14 0.01 1.56 1.76 1.56 1.36 98.08 0.33 98.41 
18.50 6.09 5.67 10.01 0.31 -0.75 0.00 -0.51 -0.12 0.00 1.56 1.36 1.56 1.76 98.08 0.33 98.41 
18.55 6.10 5.63 10.01 0.28 -0.76 0.00 -0.51 -0.11 0.00 1.36 1.56 1.76 1.56 98.08 0.33 98.41 
18.60 6.12 5.59 10.01 0.26 -0.76 0.00 -0.51 -0.09 0.00 1.76 1.56 1.36 1.56 98.08 0.32 98.40 
18.65 6.13 5.55 10.01 0.23 -0.76 0.00 -0.51 -0.07 0.00 1.56 1.36 1.56 1.76 98.08 0.32 98.40 
18.70 6.14 5.51 10.01 0.21 -0.77 0.00 -0.51 -0.06 0.00 1.36 1.56 1.76 1.56 98.08 0.32 98.40 
18.75 6.15 5.47 10.01 0.18 -0.77 0.00 -0.51 -0.04 0.00 1.56 1.76 1.56 1.36 98.08 0.31 98.39 
18.80 6.15 5.44 10.01 0.16 -0.77 0.00 -0.50 -0.02 0.00 1.76 1.56 1.36 1.56 98.08 0.31 98.39 
18.85 6.16 5.40 10.01 0.13 -0.77 0.00 -0.51 -0.00 0.00 1.56 1.36 1.56 1.76 98.08 0.31 98.39 
18.90 6.16 5.36 10.01 0.11 -0.77 0.00 -0.50 0.01 -0.00 1.36 1.56 1.76 1.56 98.08 0.30 98.38 
18.95 6.17 5.32 10.01 0.08 -0.77 0.00 -0.50 0.03 -0.00 1.76 1.56 1.36 1.56 98.08 0.30 98.38 
19.00 6.17 5.28 10.01 0.06 -0.77 0.00 -0.50 0.04 -0.00 1.56 1.36 1.56 1.76 98.08 0.29 98.38 
19.05 6.17 5.24 10.01 0.03 -0.76 0.00 -0.50 0.06 -0.00 1.36 1.56 1.76 1.56 98.08 0.29 98.37 
19.10 6.17 5.21 10.01 0.01 -0.76 0.00 -0.49 0.07 -0.00 1.75 1.57 1.37 1.55 98.08 0.29 98.37 
19.15 6.17 5.17 10.01 -0.02 -0.76 0.00 -0.49 0.08 0.00 1.56 1.36 1.56 1.76 98.08 0.29 98.37 
19.20 6.17 5.13 10.01 -0.04 -0.75 0.00 -0.48 0.10 0.00 1.36 1.56 1.76 1.56 98.08 0.28 98.37 
19.25 6.16 5.09 10.01 -0.06 -0.74 0.00 -0.47 0.11 0.00 1.56 1.76 1.56 1.36 98.08 0.28 98.36 
19.30 6.16 5.06 10.01 -0.09 -0.74 0.00 -0.47 0.13 -0.00 1.56 1.36 1.56 1.76 98.08 0.28 98.36 
19.35 6.15 5.02 10.01 -0.11 -0.73 0.00 -0.46 0.14 -0.00 1.36 1.56 1.76 1.56 98.08 0.27 98.36 
19.40 6.14 4.98 10.01 -0.13 -0.72 0.00 -0.45 0.15 -0.00 1.76 1.56 1.36 1.56 98.08 0.27 98.36 
19.45 6.14 4.95 10.01 -0.16 -0.72 0.00 -0.44 0.17 -0.00 1.56 1.36 1.56 1.76 98.08 0.27 98.35 
19.50 6.13 4.91 10.01 -0.18 -0.71 0.00 -0.43 0.18 -0.00 1.36 1.56 1.76 1.56 98.09 0.27 98.35 
19.55 6.12 4.88 10.01 -0.20 -0.70 0.00 -0.42 0.19 -0.00 1.56 1.76 1.56 1.36 98.09 0.26 98.35 
19.60 6.10 4.85 10.01 -0.22 -0.69 0.00 -0.41 0.21 -0.00 1.76 1.56 1.36 1.56 98.09 0.26 98.35 
19.65 6.09 4.81 10.01 -0.24 -0.68 0.00 -0.41 0.22 -0.00 1.56 1.36 1.56 1.76 98.09 0.26 98.34 
19.70 6.08 4.78 10.01 -0.26 -0.66 0.00 -0.40 0.23 -0.00 1.36 1.56 1.76 1.56 98.09 0.25 98.34 
19.75 6.06 4.75 10.01 -0.28 -0.65 0.00 -0.39 0.24 -0.00 1.76 1.56 1.36 1.56 98.09 0.25 98.34 
19.80 6.05 4.71 10.01 -0.30 -0.64 0.00 -0.38 0.26 -0.00 1.56 1.36 1.56 1.76 98.09 0.25 98.34 
19.85 6.03 4.68 10.01 -0.32 -0.63 0.00 -0.37 0.26 -0.00 1.36 1.56 1.76 1.56 98.09 0.25 98.33 
19.90 6.01 4.65 10.01 -0.33 -0.61 -0.00 -0.35 0.28 -0.02 1.74 1.58 1.38 1.54 98.09 0.24 98.33 
19.95 6.00 4.62 10.01 -0.35 -0.60 -0.00 -0.34 0.29 0.01 1.56 1.36 1.56 1.76 98.09 0.24 98.33 
20.00 5.98 4.60 10.01 -0.37 -0.58 0.00 -0.33 0.29 0.00 1.56 1.76 1.56 1.36 98.09 0.24 98.32 
20.05 5.96 4.57 10.01 -0.38 -0.57 0.00 -0.32 0.30 0.00 1.76 1.56 1.36 1.56 98.09 0.23 98.32 
20.10 5.94 4.54 10.01 -0.40 -0.55 0.00 -0.31 0.31 0.00 1.56 1.36 1.56 1.76 98.09 0.23 98.32 
20.15 5.92 4.51 10.01 -0.41 -0.54 0.00 -0.30 0.32 0.00 1.36 1.56 1.76 1.56 98.09 0.23 98.32 
20.20 5.90 4.49 10.01 -0.43 -0.52 0.00 -0.29 0.33 0.00 1.76 1.56 1.36 1.56 98.09 0.23 98.31 
20.25 5.87 4.46 10.01 -0.44 -0.50 0.00 -0.28 0.33 0.00 1.56 1.36 1.56 1.76 98.09 0.22 98.31 
20.30 5.85 4.44 10.01 -0.46 -0.49 0.00 -0.26 0.33 0.00 1.36 1.56 1.76 1.56 98.09 0.22 98.31 
20.35 5.83 4.42 10.01 -0.47 -0.47 0.00 -0.25 0.34 0.00 1.56 1.76 1.56 1.36 98.09 0.22 98.31 
20.40 5.80 4.39 10.01 -0.48 -0.45 0.00 -0.24 0.35 0.00 1.76 1.56 1.36 1.56 98.09 0.22 98.31 
20.45 5.78 4.37 10.01 -0.49 -0.43 0.00 -0.23 0.36 0.00 1.56 1.36 1.56 1.76 98.09 0.22 98.30 
20.50 5.75 4.35 10.01 -0.50 -0.42 0.00 -0.21 0.36 0.00 1.36 1.56 1.76 1.56 98.09 0.21 98.30 
20.55 5.73 4.33 10.01 -0.51 -0.40 0.00 -0.20 0.37 -0.00 1.76 1.56 1.36 1.56 98.09 0.21 98.30 
20.60 5.70 4.31 10.01 -0.52 -0.38 0.00 -0.19 0.37 -0.00 1.56 1.36 1.56 1.76 98.09 0.21 98.30 
20.65 5.67 4.30 10.01 -0.53 -0.36 0.00 -0.17 0.37 -0.00 1.56 1.76 1.56 1.36 98.09 0.21 98.29 
20.70 5.65 4.28 10.01 -0.54 -0.34 0.00 -0.16 0.38 -0.00 1.76 1.56 1.36 1.56 98.09 0.20 98.29 
20.75 5.62 4.26 10.01 -0.54 -0.32 0.00 -0.15 0.38 -0.00 1.56 1.36 1.56 1.76 98.09 0.20 98.29 
20.80 5.59 4.25 10.01 -0.55 -0.30 0.00 -0.13 0.38 -0.00 1.36 1.56 1.76 1.56 98.09 0.20 98.29 
20.85 5.56 4.24 10.01 -0.56 -0.29 0.00 -0.12 0.38 -0.00 1.56 1.76 1.56 1.36 98.09 0.20 98.29 
20.90 5.53 4.22 10.01 -0.56 -0.27 0.00 -0.11 0.39 -0.00 1.76 1.56 1.36 1.56 98.09 0.19 98.28 
20.95 5.51 4.21 10.01 -0.57 -0.25 0.00 -0.10 0.39 -0.00 1.56 1.36 1.56 1.76 98.09 0.19 98.28 
21.00 5.48 4.20 10.01 -0.57 -0.23 -0.00 -0.08 0.39 -0.03 1.51 1.71 1.61 1.41 98.09 0.19 98.28 
21.05 5.45 4.19 10.01 -0.58 -0.21 -0.00 -0.07 0.39 0.01 1.76 1.56 1.36 1.56 98.09 0.19 98.28 
21.10 5.42 4.18 10.01 -0.58 -0.19 -0.00 -0.06 0.39 0.00 1.56 1.36 1.56 1.76 98.09 0.19 98.27 
21.15 5.39 4.17 10.01 -0.58 -0.17 -0.00 -0.05 0.39 0.00 1.36 1.56 1.76 1.56 98.09 0.18 98.27 
21.20 5.36 4.17 10.01 -0.58 -0.15 -0.00 -0.04 0.39 0.00 1.76 1.56 1.36 1.56 98.09 0.18 98.27 
21.25 5.33 4.16 10.01 -0.58 -0.13 0.00 -0.03 0.39 0.00 1.56 1.36 1.56 1.76 98.09 0.18 98.27 
21.30 5.30 4.16 10.01 -0.58 -0.11 -0.00 -0.01 0.38 -0.04 1.48 1.68 1.64 1.44 98.09 0.18 98.26 
21.35 5.27 4.15 10.01 -0.58 -0.09 -0.00 0.00 0.38 0.02 1.76 1.56 1.36 1.56 98.09 0.18 98.26 
21.40 5.24 4.15 10.01 -0.58 -0.07 -0.00 0.01 0.38 0.01 1.56 1.36 1.56 1.76 98.09 0.17 98.26 
21.45 5.21 4.15 10.01 -0.58 -0.05 -0.00 0.03 0.37 0.01 1.36 1.56 1.76 1.56 98.09 0.17 98.26 
21.50 5.19 4.14 10.01 -0.58 -0.04 0.00 0.04 0.37 0.01 1.56 1.76 1.56 1.36 98.09 0.17 98.26 
21.55 5.16 4.14 10.01 -0.58 -0.02 0.00 0.06 0.37 0.00 1.76 1.56 1.36 1.56 98.09 0.17 98.25 
21.60 5.13 4.14 10.01 -0.57 0.00 -0.00 0.07 0.37 -0.02 1.59 1.39 1.53 1.73 98.09 0.16 98.25 
21.65 5.10 4.15 10.01 -0.57 0.02 -0.00 0.08 0.36 0.01 1.56 1.76 1.56 1.36 98.09 0.16 98.25 
21.70 5.07 4.15 10.01 -0.57 0.04 0.00 0.09 0.36 0.00 1.76 1.56 1.36 1.56 98.09 0.16 98.25 
21.75 5.04 4.15 10.01 -0.56 0.05 0.00 0.10 0.35 0.00 1.56 1.36 1.56 1.76 98.09 0.16 98.25 
21.80 5.02 4.16 10.01 -0.56 0.07 0.00 0.11 0.34 0.00 1.36 1.56 1.76 1.56 98.09 0.16 98.24 
21.85 4.99 4.16 10.01 -0.55 0.09 0.00 0.12 0.34 0.00 1.56 1.76 1.56 1.36 98.09 0.15 98.24 
21.90 4.96 4.17 10.01 -0.54 0.11 0.00 0.13 0.34 0.00 1.76 1.56 1.36 1.56 98.09 0.15 98.24 
21.95 4.94 4.17 10.01 -0.54 0.12 0.00 0.14 0.33 0.00 1.56 1.36 1.56 1.76 98.09 0.15 98.24 
22.00 4.91 4.18 10.01 -0.53 0.14 0.00 0.15 0.32 0.00 1.56 1.76 1.56 1.36 98.09 0.15 98.24 
22.05 4.88 4.19 10.01 -0.52 0.15 0.00 0.16 0.32 0.00 1.76 1.56 1.36 1.56 98.09 0.15 98.24 
22.10 4.86 4.20 10.01 -0.51 0.17 0.00 0.17 0.31 -0.00 1.56 1.36 1.56 1.76 98.09 0.15 98.23 
22.15 4.83 4.21 10.01 -0.50 0.19 0.00 0.18 0.30 -0.00 1.36 1.56 1.76 1.56 98.09 0.14 98.23 
22.20 4.81 4.22 10.01 -0.49 0.20 0.00 0.19 0.30 -0.00 1.56 1.76 1.56 1.36 98.09 0.14 98.23 
22.25 4.78 4.23 10.01 -0.48 0.21 0.00 0.20 0.29 -0.00 1.76 1.56 1.36 1.56 98.09 0.14 98.23 
22.30 4.76 4.24 10.01 -0.47 0.23 0.00 0.20 0.28 -0.00 1.56 1.36 1.56 1.76 98.09 0.14 98.23 
22.35 4.74 4.25 10.01 -0.46 0.24 0.00 0.21 0.27 -0.00 1.56 1.76 1.56 1.36 98.09 0.14 98.23 
22.40 4.72 4.27 10.01 -0.45 0.26 0.00 0.22 0.27 -0.00 1.76 1.56 1.36 1.56 98.09 0.13 98.23 
22.45 4.69 4.28 10.01 -0.44 0.27 0.00 0.22 0.26 -0.00 1.56 1.36 1.56 1.76 98.09 0.13 98.22 
22.50 4.67 4.29 10.01 -0.43 0.28 0.00 0.23 0.25 -0.00 1.36 1.56 1.76 1.56 98.09 0.13 98.22 
22.55 4.65 4.31 10.01 -0.42 0.29 0.00 0.24 0.24 -0.00 1.56 1.76 1.56 1.36 98.09 0.13 98.22 
22.60 4.63 4.32 10.01 -0.41 0.30 0.00 0.25 0.23 -0.00 1.76 1.56 1.36 1.56 98.09 0.13 98.22 
22.65 4.61 4.34 10.01 -0.39 0.32 0.00 0.25 0.22 -0.00 1.56 1.36 1.56 1.76 98.09 0.13 98.22 
22.70 4.59 4.36 10.01 -0.38 0.33 0.00 0.26 0.21 -0.00 1.56 1.76 1.56 1.36 98.09 0.13 98.22 
22.75 4.58 4.37 10.01 -0.37 0.34 0.00 0.26 0.20 -0.00 1.76 1.56 1.36 1.56 98.09 0.12 98.22 
22.80 4.56 4.39 10.01 -0.35 0.35 0.00 0.26 0.19 -0.00 1.56 1.36 1.56 1.76 98.09 0.12 98.22 
22.85 4.54 4.41 10.01 -0.34 0.36 0.00 0.27 0.18 -0.00 1.36 1.56 1.76 1.56 98.09 0.12 98.21 
22.90 4.53 4.43 10.01 -0.33 0.36 0.00 0.28 0.17 -0.00 1.56 1.76 1.56 1.36 98.09 0.12 98.21 
22.95 4.51 4.45 10.01 -0.31 0.37 0.00 0.28 0.16 -0.00 1.76 1.56 1.36 1.56 98.09 0.12 98.21 
23.00 4.50 4.47 10.01 -0.30 0.38 0.00 0.29 0.15 -0.00 1.36 1.56 1.76 1.56 98.09 0.12 98.21 
23.05 4.48 4.48 10.01 -0.28 0.39 0.00 0.29 0.14 -0.00 1.56 1.76 1.56 1.36 98.09 0.11 98.21 
23.10 4.47 4.50 10.01 -0.27 0.39 0.00 0.29 0.13 -0.00 1.76 1.56 1.36 1.56 98.09 0.11 98.21 
23.15 4.46 4.52 10.01 -0.25 0.40 0.00 0.29 0.12 -0.00 1.76 1.56 1.36 1.56 98.09 0.11 98.21 
23.20 4.45 4.55 10.01 -0.24 0.40 0.00 0.29 0.11 -0.00 1.56 1.36 1.56 1.76 98.09 0.11 98.20 
23.25 4.44 4.57 10.01 -0.22 0.41 0.00 0.30 0.10 -0.00 1.36 1.56 1.76 1.56 98.09 0.11 98.20 
23.30 4.43 4.59 10.01 -0.21 0.41 0.00 0.30 0.09 -0.00 1.56 1.76 1.56 1.36 98.09 0.11 98.20 
23.35 4.42 4.61 10.01 -0.19 0.42 0.00 0.30 0.08 -0.00 1.76 1.56 1.36 1.56 98.09 0.11 98.20 
23.40 4.41 4.63 10.01 -0.18 0.42 0.00 0.30 0.07 -0.00 1.36 1.56 1.76 1.56 98.09 0.10 98.20 
23.45 4.40 4.65 10.01 -0.16 0.42 0.00 0.30 0.06 -0.00 1.56 1.76 1.56 1.36 98.09 0.10 98.20 
23.50 4.39 4.67 10.01 -0.15 0.43 0.00 0.30 0.06 -0.00 1.76 1.56 1.36 1.56 98.09 0.10 98.20 
23.55 4.39 4.69 10.01 -0.13 0.43 0.00 0.30 0.05 0.00 1.56 1.36 1.56 1.76 98.09 0.10 98.20 
23.60 4.38 4.71 10.01 -0.12 0.43 0.00 0.30 0.03 -0.00 1.56 1.76 1.56 1.36 98.09 0.10 98.19 
23.65 4.38 4.74 10.01 -0.11 0.43 0.00 0.29 0.03 0.00 1.76 1.56 1.36 1.56 98.09 0.10 98.19 
23.70 4.37 4.76 10.01 -0.09 0.43 0.00 0.29 0.02 0.00 1.56 1.36 1.56 1.76 98.09 0.10 98.19 
23.75 4.37 4.78 10.01 -0.08 0.43 0.00 0.29 0.00 0.00 1.36 1.56 1.76 1.56 98.09 0.10 98.19 
23.80 4.37 4.80 10.01 -0.06 0.43 0.00 0.29 -0.01 -0.00 1.56 1.76 1.56 1.36 98.09 0.10 98.19 
23.85 4.36 4.82 10.01 -0.05 0.43 0.00 0.28 -0.02 0.00 1.76 1.56 1.36 1.56 98.09 0.09 98.19 
23.90 4.36 4.84 10.01 -0.03 0.43 0.00 0.28 -0.03 0.00 1.36 1.56 1.76 1.56 98.09 0.09 98.19 
23.95 4.36 4.87 10.01 -0.02 0.43 0.00 0.28 -0.04 -0.00 1.56 1.76 1.56 1.36 98.09 0.09 98.19 
24.00 4.36 4.89 10.01 -0.01 0.43 0.00 0.27 -0.04 0.00 1.76 1.56 1.36 1.56 98.09 0.09 98.19 
24.05 4.36 4.91 10.01 0.01 0.42 0.00 0.26 -0.05 0.00 1.56 1.36 1.56 1.76 98.10 0.09 98.19 
24.10 4.36 4.93 10.01 0.02 0.42 0.00 0.26 -0.06 0.00 1.36 1.56 1.76 1.56 98.10 0.09 98.18 
24.15 4.37 4.95 10.01 0.03 0.42 0.00 0.26 -0.07 -0.00 1.56 1.76 1.56 1.36 98.10 0.09 98.18 
24.20 4.37 4.97 10.01 0.05 0.41 0.00 0.25 -0.08 -0.00 1.76 1.56 1.36 1.56 98.10 0.09 98.18 
24.25 4.37 4.99 10.01 0.06 0.41 0.00 0.25 -0.09 0.00 1.56 1.36 1.56 1.76 98.10 0.09 98.18 
24.30 4.37 5.01 10.01 0.07 0.41 0.00 0.24 -0.10 -0.00 1.36 1.56 1.76 1.56 98.10 0.08 98.18 
24.35 4.38 5.03 10.01 0.08 0.40 0.00 0.24 -0.11 -0.00 1.56 1.76 1.56 1.36 98.10 0.08 98.18 
24.40 4.38 5.05 10.01 0.09 0.39 -0.00 0.24 -0.11 -0.04 1.64 1.44 1.48 1.68 98.09 0.08 98.18 
24.45 4.39 5.07 10.01 0.11 0.39 -0.00 0.23 -0.12 0.02 1.36 1.56 1.76 1.56 98.09 0.08 98.17 
24.50 4.40 5.09 10.01 0.12 0.38 -0.00 0.23 -0.13 0.01 1.56 1.76 1.56 1.36 98.09 0.08 98.17 
24.55 4.40 5.11 10.01 0.13 0.38 -0.00 0.23 -0.13 0.01 1.76 1.56 1.36 1.56 98.09 0.08 98.17 
24.60 4.41 5.13 10.01 0.14 0.37 -0.00 0.22 -0.14 0.00 1.36 1.56 1.76 1.56 98.09 0.08 98.17 
24.65 4.42 5.14 10.01 0.15 0.36 -0.00 0.22 -0.14 0.00 1.56 1.76 1.56 1.36 98.09 0.08 98.17 
24.70 4.43 5.16 10.01 0.16 0.35 0.00 0.21 -0.15 0.00 1.76 1.56 1.36 1.56 98.09 0.08 98.17 
24.75 4.43 5.18 10.01 0.17 0.35 0.00 0.20 -0.15 0.00 1.56 1.36 1.56 1.76 98.09 0.07 98.17 
24.80 4.44 5.20 10.01 0.18 0.34 0.00 0.20 -0.16 0.00 1.36 1.56 1.76 1.56 98.09 0.07 98.17 
24.85 4.45 5.21 10.01 0.19 0.33 0.00 0.20 -0.16 0.00 1.56 1.76 1.56 1.36 98.09 0.07 98.17 
24.90 4.46 5.23 10.01 0.20 0.32 0.00 0.19 -0.17 0.00 1.76 1.56 1.36 1.56 98.09 0.07 98.17 
24.95 4.47 5.24 10.01 0.21 0.31 -0.00 0.18 -0.17 -0.03 1.49 1.43 1.63 1.69 98.09 0.07 98.16 
25.00 4.49 5.26 10.01 0.22 0.30 -0.00 0.17 -0.18 -0.03 1.46 1.66 1.66 1.46 98.09 0.07 98.16 
25.05 4.50 5.27 10.01 0.23 0.29 -0.00 0.17 -0.18 0.02 1.56 1.76 1.56 1.36 98.09 0.07 98.16 
25.10 4.51 5.29 10.01 0.23 0.29 -0.00 0.16 -0.18 0.01 1.76 1.56 1.36 1.56 98.09 0.07 98.16 
25.15 4.52 5.30 10.01 0.24 0.28 -0.00 0.15 -0.19 0.01 1.56 1.36 1.56 1.76 98.09 0.07 98.16 
25.20 4.53 5.31 10.01 0.25 0.27 -0.00 0.14 -0.19 0.01 1.36 1.56 1.76 1.56 98.09 0.07 98.16 
25.25 4.55 5.33 10.01 0.26 0.26 0.00 0.14 -0.20 0.01 1.56 1.76 1.56 1.36 98.09 0.07 98.16 
25.30 4.56 5.34 10.01 0.26 0.25 0.00 0.13 -0.20 0.00 1.76 1.56 1.36 1.56 98.09 0.06 98.16 
25.35 4.57 5.35 10.01 0.27 0.24 0.00 0.12 -0.20 0.00 1.56 1.36 1.56 1.76 98.09 0.06 98.15 
25.40 4.59 5.36 10.01 0.27 0.23 0.00 0.11 -0.21 0.00 1.36 1.56 1.76 1.56 98.09 0.06 98.15 
25.45 4.60 5.37 10.01 0.28 0.22 0.00 0.11 -0.21 0.00 1.56 1.76 1.56 1.36 98.09 0.06 98.15 
25.50 4.62 5.38 10.01 0.29 0.20 0.00 0.10 -0.21 0.00 1.56 1.36 1.56 1.76 98.09 0.06 98.15 
25.55 4.63 5.39 10.01 0.29 0.19 0.00 0.10 -0.22 0.00 1.36 1.56 1.76 1.56 98.09 0.06 98.15 
25.60 4.65 5.40 10.01 0.29 0.18 0.00 0.09 -0.22 0.00 1.56 1.76 1.56 1.36 98.09 0.06 98.15 
25.65 4.66 5.41 10.01 0.30 0.17 -0.00 0.09 -0.22 -0.04 1.66 1.66 1.46 1.46 98.09 0.06 98.15 
25.70 4.68 5.41 10.01 0.30 0.16 -0.00 0.08 -0.22 0.02 1.56 1.36 1.56 1.76 98.09 0.06 98.15 
25.75 4.69 5.42 10.01 0.31 0.15 -0.00 0.07 -0.22 0.00 1.56 1.76 1.56 1.36 98.09 0.06 98.15 
25.80 4.71 5.43 10.01 0.31 0.14 0.00 0.06 -0.22 0.01 1.76 1.56 1.36 1.56 98.09 0.06 98.15 
25.85 4.72 5.43 10.01 0.31 0.13 0.00 0.05 -0.22 0.00 1.36 1.56 1.76 1.56 98.09 0.06 98.15 
25.90 4.74 5.44 10.01 0.31 0.12 0.00 0.05 -0.22 0.00 1.56 1.76 1.56 1.36 98.09 0.06 98.15 
25.95 4.75 5.45 10.01 0.32 0.11 0.00 0.04 -0.22 0.00 1.56 1.36 1.56 1.76 98.09 0.06 98.15 
26.00 4.77 5.45 10.01 0.32 0.09 0.00 0.03 -0.22 0.00 1.36 1.56 1.76 1.56 98.09 0.06 98.15 
26.05 4.79 5.45 10.01 0.32 0.08 0.00 0.02 -0.22 0.00 1.56 1.76 1.56 1.36 98.09 0.05 98.15 
26.10 4.80 5.46 10.01 0.32 0.07 0.00 0.02 -0.21 0.00 1.76 1.56 1.36 1.56 98.09 0.05 98.15 
26.15 4.82 5.46 10.01 0.32 0.06 0.00 0.01 -0.21 0.00 1.56 1.36 1.56 1.76 98.09 0.05 98.15 
26.20 4.83 5.46 10.01 0.32 0.05 0.00 -0.00 -0.21 -0.00 1.36 1.56 1.76 1.56 98.09 0.05 98.15 
26.25 4.85 5.46 10.01 0.32 0.04 0.00 -0.01 -0.21 -0.00 1.56 1.76 1.56 1.36 98.09 0.05 98.15 
26.30 4.87 5.47 10.01 0.32 0.03 0.00 -0.01 -0.20 -0.00 1.76 1.56 1.36 1.56 98.09 0.05 98.15 
26.35 4.88 5.47 10.01 0.32 0.02 0.00 -0.02 -0.20 -0.00 1.56 1.36 1.56 1.76 98.10 0.05 98.15 
26.40 4.90 5.47 10.01 0.32 0.01 0.00 -0.03 -0.20 -0.00 1.36 1.56 1.76 1.56 98.10 0.05 98.15 
26.45 4.91 5.47 10.01 0.31 0.00 0.00 -0.04 -0.20 -0.00 1.56 1.76 1.56 1.36 98.10 0.05 98.15 
26.50 4.93 5.47 10.01 0.31 -0.01 0.00 -0.04 -0.20 -0.00 1.56 1.36 1.56 1.76 98.10 0.05 98.14 
26.55 4.95 5.46 10.01 0.31 -0.02 0.00 -0.05 -0.20 -0.00 1.36 1.56 1.76 1.56 98.10 0.05 98.14 
26.60 4.96 5.46 10.01 0.31 -0.03 0.00 -0.05 -0.19 -0.00 1.56 1.76 1.56 1.36 98.10 0.05 98.14 
26.65 4.98 5.46 10.01 0.30 -0.04 0.00 -0.06 -0.19 -0.00 1.76 1.56 1.36 1.56 98.10 0.05 98.14 
26.70 4.99 5.46 10.01 0.30 -0.05 0.00 -0.07 -0.18 -0.00 1.56 1.36 1.56 1.76 98.10 0.05 98.14 
26.75 5.01 5.45 10.01 0.30 -0.06 0.00 -0.07 -0.18 -0.00 1.36 1.56 1.76 1.56 98.10 0.05 98.14 
26.80 5.02 5.45 10.01 0.29 -0.06 0.00 -0.08 -0.18 -0.00 1.56 1.76 1.56 1.36 98.10 0.05 98.14 
26.85 5.03 5.45 10.01 0.29 -0.07 0.00 -0.08 -0.17 -0.00 1.76 1.56 1.36 1.56 98.10 0.04 98.14 
26.90 5.05 5.44 10.01 0.29 -0.08 0.00 -0.09 -0.17 -0.00 1.56 1.36 1.56 1.76 98.10 0.04 98.14 
26.95 5.06 5.44 10.01 0.28 -0.09 0.00 -0.10 -0.17 -0.00 1.36 1.56 1.76 1.56 98.10 0.04 98.14 
27.00 5.08 5.43 10.01 0.28 -0.10 0.00 -0.10 -0.16 -0.00 1.56 1.76 1.56 1.36 98.10 0.04 98.14 
27.05 5.09 5.43 10.01 0.27 -0.11 0.00 -0.10 -0.15 -0.00 1.56 1.36 1.56 1.76 98.10 0.04 98.14 
27.10 5.10 5.42 10.01 0.26 -0.11 0.00 -0.11 -0.15 0.00 1.36 1.56 1.76 1.56 98.10 0.04 98.14 
27.15 5.12 5.42 10.01 0.26 -0.12 0.00 -0.11 -0.15 0.00 1.56 1.76 1.56 1.36 98.10 0.04 98.14 
27.20 5.13 5.41 10.01 0.25 -0.13 0.00 -0.11 -0.14 0.00 1.76 1.56 1.36 1.56 98.10 0.04 98.14 
27.25 5.14 5.40 10.01 0.25 -0.13 0.00 -0.12 -0.13 0.00 1.56 1.36 1.56 1.76 98.10 0.04 98.14 
27.30 5.15 5.40 10.01 0.24 -0.14 0.00 -0.12 -0.13 -0.00 1.36 1.56 1.76 1.56 98.10 0.04 98.14 
27.35 5.16 5.39 10.01 0.24 -0.15 0.00 -0.12 -0.12 -0.00 1.76 1.56 1.36 1.56 98.10 0.04 98.14 
27.40 5.18 5.38 10.01 0.23 -0.15 0.00 -0.13 -0.12 -0.00 1.56 1.36 1.56 1.76 98.10 0.04 98.14 
27.45 5.19 5.37 10.01 0.22 -0.16 0.00 -0.13 -0.12 -0.00 1.36 1.56 1.76 1.56 98.10 0.04 98.14 
27.50 5.20 5.36 10.01 0.22 -0.16 0.00 -0.13 -0.11 -0.00 1.56 1.76 1.56 1.36 98.10 0.04 98.13 
27.55 5.21 5.35 10.01 0.21 -0.17 0.00 -0.13 -0.11 -0.00 1.76 1.56 1.36 1.56 98.10 0.04 98.13 
27.60 5.22 5.35 10.01 0.20 -0.18 0.00 -0.14 -0.10 -0.00 1.56 1.36 1.56 1.76 98.10 0.04 98.13 
27.65 5.23 5.34 10.01 0.20 -0.18 0.00 -0.14 -0.10 -0.00 1.36 1.56 1.76 1.56 98.10 0.04 98.13 
27.70 5.24 5.33 10.01 0.19 -0.19 0.00 -0.14 -0.10 -0.00 1.56 1.76 1.56 1.36 98.10 0.03 98.13 
27.75 5.24 5.32 10.01 0.18 -0.19 0.00 -0.14 -0.09 -0.00 1.76 1.56 1.36 1.56 98.10 0.03 98.13 
27.80 5.25 5.31 10.01 0.17 -0.19 0.00 -0.15 -0.09 -0.00 1.56 1.36 1.56 1.76 98.10 0.03 98.13 
27.85 5.26 5.30 10.01 0.17 -0.20 0.00 -0.15 -0.09 -0.00 1.36 1.56 1.76 1.56 98.10 0.03 98.13 
27.90 5.27 5.29 10.01 0.16 -0.20 0.00 -0.15 -0.08 -0.00 1.56 1.76 1.56 1.36 98.10 0.03 98.13 
27.95 5.28 5.28 10.01 0.15 -0.21 0.00 -0.15 -0.08 -0.00 1.56 1.36 1.56 1.76 98.10 0.03 98.13 
28.00 5.28 5.27 10.01 0.15 -0.21 0.00 -0.15 -0.07 -0.00 1.36 1.56 1.76 1.56 98.10 0.03 98.13 
28.05 5.29 5.26 10.01 0.14 -0.21 0.00 -0.14 -0.07 0.00 1.56 1.76 1.56 1.36 98.10 0.03 98.13 
28.10 5.30 5.25 10.01 0.13 -0.22 0.00 -0.15 -0.06 0.00 1.76 1.56 1.36 1.56 98.10 0.03 98.13 
28.15 5.30 5.23 10.01 0.12 -0.22 0.00 -0.15 -0.05 -0.00 1.56 1.36 1.56 1.76 98.10 0.03 98.13 
28.20 5.31 5.22 10.01 0.12 -0.22 0.00 -0.15 -0.05 -0.00 1.36 1.56 1.76 1.56 98.10 0.03 98.13 
28.25 5.31 5.21 10.01 0.11 -0.22 0.00 -0.15 -0.05 0.00 1.56 1.76 1.56 1.36 98.10 0.03 98.13 
28.30 5.32 5.20 10.01 0.10 -0.23 0.00 -0.15 -0.04 0.00 1.76 1.56 1.36 1.56 98.10 0.03 98.13 
28.35 5.32 5.19 10.01 0.09 -0.23 0.00 -0.15 -0.03 -0.00 1.56 1.36 1.56 1.76 98.10 0.03 98.13 
28.40 5.33 5.18 10.01 0.09 -0.23 0.00 -0.15 -0.03 -0.00 1.36 1.56 1.76 1.56 98.10 0.03 98.13 
28.45 5.33 5.17 10.01 0.08 -0.23 0.00 -0.15 -0.02 0.00 1.56 1.76 1.56 1.36 98.10 0.03 98.13 
28.50 5.33 5.15 10.01 0.07 -0.23 0.00 -0.15 -0.01 -0.00 1.76 1.56 1.36 1.56 98.10 0.03 98.13 
28.55 5.34 5.14 10.01 0.06 -0.23 0.00 -0.15 -0.01 -0.00 1.56 1.36 1.56 1.76 98.10 0.03 98.13 
28.60 5.34 5.13 10.01 0.06 -0.23 0.00 -0.15 -0.01 -0.00 1.36 1.56 1.76 1.56 98.10 0.03 98.13 
28.65 5.34 5.12 10.01 0.05 -0.23 0.00 -0.15 0.00 -0.00 1.56 1.76 1.56 1.36 98.10 0.03 98.13 
28.70 5.34 5.11 10.01 0.04 -0.23 0.00 -0.15 0.01 -0.00 1.76 1.56 1.36 1.56 98.10 0.03 98.13 
28.75 5.35 5.10 10.01 0.03 -0.23 0.00 -0.15 0.01 -0.00 1.56 1.36 1.56 1.76 98.10 0.03 98.13 
28.80 5.35 5.08 10.01 0.03 -0.23 0.00 -0.15 0.02 -0.00 1.36 1.56 1.76 1.56 98.10 0.03 98.13 
28.85 5.35 5.07 10.01 0.02 -0.23 0.00 -0.15 0.02 -0.00 1.76 1.56 1.36 1.56 98.10 0.03 98.13 
28.90 5.35 5.06 10.01 0.01 -0.23 0.00 -0.15 0.03 -0.00 1.56 1.36 1.56 1.76 98.10 0.03 98.12 
28.95 5.35 5.05 10.01 0.01 -0.23 0.00 -0.15 0.03 -0.00 1.36 1.56 1.76 1.56 98.10 0.03 98.12 
29.00 5.35 5.04 10.01 -0.00 -0.22 0.00 -0.14 0.03 0.00 1.56 1.76 1.56 1.36 98.10 0.03 98.12 
29.05 5.35 5.03 10.01 -0.01 -0.22 0.00 -0.14 0.04 -0.00 1.76 1.56 1.36 1.56 98.10 0.02 98.12 
29.10 5.35 5.02 10.01 -0.02 -0.22 0.00 -0.14 0.04 -0.00 1.56 1.36 1.56 1.76 98.10 0.02 98.12 
29.15 5.34 5.01 10.01 -0.02 -0.22 0.00 -0.14 0.04 -0.00 1.36 1.56 1.76 1.56 98.10 0.02 98.12 
29.20 5.34 5.00 10.01 -0.03 -0.22 0.00 -0.13 0.05 0.00 1.56 1.76 1.56 1.36 98.10 0.02 98.12 
29.25 5.34 4.99 10.01 -0.04 -0.21 0.00 -0.13 0.05 -0.00 1.76 1.56 1.36 1.56 98.10 0.02 98.12 
29.30 5.34 4.97 10.01 -0.04 -0.21 0.00 -0.13 0.06 -0.00 1.56 1.36 1.56 1.76 98.10 0.02 98.12 
29.35 5.34 4.96 10.01 -0.05 -0.21 0.00 -0.13 0.06 -0.00 1.36 1.56 1.76 1.56 98.10 0.02 98.12 
29.40 5.33 4.95 10.01 -0.06 -0.20 0.00 -0.13 0.06 0.00 1.56 1.76 1.56 1.36 98.10 0.02 98.12 
29.45 5.33 4.94 10.01 -0.06 -0.20 0.00 -0.13 0.07 -0.00 1.76 1.56 1.36 1.56 98.10 0.02 98.12 
29.50 5.33 4.93 10.01 -0.07 -0.20 0.00 -0.13 0.07 -0.00 1.56 1.36 1.56 1.76 98.10 0.02 98.12 
29.55 5.32 4.92 10.01 -0.07 -0.19 0.00 -0.12 0.07 -0.00 1.36 1.56 1.76 1.56 98.10 0.02 98.12 
29.60 5.32 4.92 10.01 -0.08 -0.19 0.00 -0.12 0.08 -0.00 1.76 1.56 1.36 1.56 98.10 0.02 98.12 
29.65 5.31 4.91 10.01 -0.09 -0.19 0.00 -0.12 0.08 -0.00 1.56 1.36 1.56 1.76 98.10 0.02 98.12 
29.70 5.31 4.90 10.01 -0.09 -0.18 0.00 -0.11 0.08 0.00 1.36 1.56 1.76 1.56 98.10 0.02 98.12 
29.75 5.30 4.89 10.01 -0.10 -0.18 0.00 -0.11 0.08 0.00 1.56 1.76 1.56 1.36 98.10 0.02 98.12 
29.80 5.30 4.88 10.01 -0.10 -0.17 0.00 -0.10 0.08 0.00 1.76 1.56 1.36 1.56 98.10 0.02 98.12 
29.85 5.29 4.87 10.01 -0.11 -0.17 0.00 -0.10 0.09 0.00 1.56 1.36 1.56 1.76 98.10 0.02 98.12 
29.90 5.29 4.86 10.01 -0.11 -0.17 0.00 -0.10 0.08 0.00 1.36 1.56 1.76 1.56 98.10 0.02 98.12 
29.95 5.28 4.86 10.01 -0.12 -0.16 0.00 -0.09 0.09 0.00 1.56 1.76 1.56 1.36 98.10 0.02 98.12 
30.00 5.28 4.85 10.01 -0.12 -0.16 0.00 -0.09 0.09 0.00 1.76 1.56 1.36 1.56 98.10 0.02 98.12 
30.05 5.27 4.84 10.01 -0.13 -0.15 0.00 -0.09 0.09 0.00 1.36 1.56 1.76 1.56 98.10 0.02 98.12 
30.10 5.26 4.83 10.01 -0.13 -0.15 0.00 -0.08 0.10 -0.00 1.76 1.56 1.36 1.56 98.10 0.02 98.12 
30.15 5.26 4.83 10.01 -0.13 -0.14 0.00 -0.08 0.10 -0.00 1.36 1.56 1.76 1.56 98.10 0.02 98.12 
30.20 5.25 4.82 10.01 -0.14 -0.14 0.00 -0.08 0.10 -0.00 1.36 1.56 1.76 1.56 98.10 0.02 98.12 
30.25 5.24 4.81 10.01 -0.14 -0.13 0.00 -0.07 0.11 -0.00 1.36 1.56 1.76 1.56 98.10 0.02 98.12 
30.30 5.23 4.81 10.01 -0.15 -0.13 0.00 -0.06 0.12 -0.00 1.36 1.56 1.76 1.56 98.10 0.02 98.12 
30.35 5.23 4.80 10.01 -0.15 -0.12 0.00 -0.05 0.13 -0.00 1.36 1.56 1.76 1.56 98.10 0.02 98.12 
30.40 5.22 4.80 10.01 -0.15 -0.11 0.00 -0.04 0.14 -0.00 1.36 1.56 1.76 1.56 98.10 0.02 98.12 
30.45 5.21 4.79 10.01 -0.15 -0.10 -0.00 -0.03 0.16 -0.00 1.36 1.56 1.76 1.56 98.10 0.02 98.12 
30.50 5.20 4.79 10.01 -0.15 -0.10 -0.00 -0.01 0.17 -0.00 1.36 1.56 1.76 1.56 98.10 0.02 98.12 
30.55 5.20 4.78 10.01 -0.15 -0.09 -0.00 0.01 0.19 -0.00 1.56 1.76 1.56 1.36 98.10 0.02 98.11 
30.60 5.19 4.78 10.01 -0.15 -0.08 -0.00 0.02 0.21 -0.00 1.56 1.76 1.56 1.36 98.10 0.01 98.11 
30.65 5.18 4.78 10.01 -0.15 -0.06 -0.00 0.03 0.23 -0.00 1.56 1.76 1.56 1.36 98.10 0.01 98.11 
30.70 5.17 4.77 10.01 -0.15 -0.05 -0.00 0.04 0.25 -0.00 1.56 1.76 1.56 1.36 98.10 0.01 98.11 
30.75 5.17 4.77 10.01 -0.14 -0.04 -0.00 0.05 0.28 -0.00 1.56 1.76 1.56 1.36 98.10 0.01 98.11 
30.80 5.16 4.77 10.01 -0.14 -0.02 -0.00 0.06 0.31 -0.00 1.76 1.56 1.36 1.56 98.10 0.01 98.11 
30.85 5.15 4.77 10.01 -0.14 -0.01 -0.00 0.06 0.33 -0.00 1.76 1.56 1.36 1.56 98.10 0.01 98.11 
30.90 5.15 4.77 10.01 -0.14 0.01 -0.00 0.06 0.35 -0.00 1.76 1.56 1.36 1.56 98.10 0.01 98.11 
30.95 5.14 4.77 10.01 -0.13 0.03 -0.00 0.07 0.37 -0.00 1.76 1.56 1.36 1.56 98.10 0.01 98.11 
31.00 5.13 4.78 10.01 -0.13 0.05 -0.00 0.06 0.39 -0.00 1.76 1.56 1.36 1.56 98.10 0.01 98.11 
31.05 5.13 4.78 10.01 -0.13 0.07 -0.00 0.06 0.41 -0.00 1.76 1.56 1.36 1.56 98.10 0.01 98.11 
31.10 5.12 4.79 10.01 -0.12 0.09 -0.00 0.06 0.42 -0.00 1.56 1.36 1.56 1.76 98.10 0.01 98.11 
31.15 5.11 4.79 10.01 -0.12 0.11 -0.00 0.06 0.43 -0.00 1.56 1.36 1.56 1.76 98.10 0.01 98.11 
31.20 5.11 4.80 10.01 -0.12 0.14 -0.00 0.06 0.44 -0.00 1.76 1.56 1.36 1.56 98.10 0.02 98.11 
31.25 5.10 4.81 10.01 -0.12 0.16 -0.00 0.05 0.45 -0.00 1.56 1.36 1.56 1.76 98.09 0.02 98.11 
31.30 5.10 4.82 10.01 -0.11 0.18 -0.00 0.05 0.46 -0.00 1.56 1.36 1.56 1.76 98.09 0.02 98.12 
31.35 5.09 4.83 10.01 -0.11 0.20 -0.00 0.06 0.46 -0.00 1.56 1.36 1.56 1.76 98.09 0.03 98.12 
31.40 5.09 4.84 10.01 -0.11 0.23 -0.00 0.06 0.47 0.00 1.56 1.36 1.56 1.76 98.09 0.03 98.12 
31.45 5.08 4.85 10.01 -0.10 0.25 -0.00 0.07 0.47 0.00 1.56 1.36 1.56 1.76 98.09 0.04 98.13 
31.50 5.08 4.87 10.01 -0.10 0.27 -0.00 0.08 0.46 -0.03 1.62 1.42 1.50 1.70 98.09 0.04 98.13 
31.55 5.07 4.88 10.01 -0.10 0.30 -0.00 0.08 0.46 0.01 1.56 1.36 1.56 1.76 98.09 0.05 98.14 
31.60 5.07 4.90 10.01 -0.09 0.32 -0.00 0.10 0.46 0.01 1.76 1.56 1.36 1.56 98.09 0.06 98.14 
31.65 5.06 4.92 10.01 -0.09 0.34 -0.00 0.10 0.45 0.01 1.56 1.36 1.56 1.76 98.09 0.06 98.15 
31.70 5.06 4.94 10.01 -0.08 0.36 -0.00 0.11 0.44 0.01 1.56 1.36 1.56 1.76 98.09 0.07 98.16 
31.75 5.06 4.96 10.01 -0.07 0.39 -0.00 0.13 0.43 0.00 1.36 1.56 1.76 1.56 98.09 0.08 98.17 
31.80 5.05 4.98 10.01 -0.07 0.41 -0.00 0.14 0.42 -0.04 1.65 1.67 1.47 1.45 98.09 0.09 98.17 
31.85 5.05 5.00 10.01 -0.06 0.43 -0.00 0.15 0.42 0.02 1.76 1.56 1.36 1.56 98.09 0.09 98.18 
31.90 5.05 5.02 10.01 -0.05 0.45 -0.00 0.16 0.41 0.01 1.56 1.36 1.56 1.76 98.09 0.10 98.19 
31.95 5.05 5.05 10.01 -0.04 0.47 -0.00 0.18 0.40 0.01 1.56 1.76 1.56 1.36 98.08 0.11 98.20 
32.00 5.05 5.07 10.01 -0.03 0.49 -0.00 0.18 0.39 0.01 1.76 1.56 1.36 1.56 98.08 0.12 98.20 
32.05 5.04 5.10 10.01 -0.02 0.51 -0.00 0.19 0.38 0.01 1.56 1.36 1.56 1.76 98.08 0.13 98.21 
32.10 5.04 5.12 10.01 -0.01 0.53 0.00 0.20 0.36 0.00 1.56 1.76 1.56 1.36 98.08 0.14 98.22 
32.15 5.04 5.15 10.01 -0.00 0.54 0.00 0.21 0.35 0.00 1.76 1.56 1.36 1.56 98.08 0.15 98.23 
32.20 5.04 5.18 10.01 0.01 0.56 0.00 0.22 0.34 0.00 1.56 1.36 1.56 1.76 98.09 0.16 98.24 
32.25 5.05 5.21 10.01 0.02 0.58 0.00 0.22 0.32 0.00 1.36 1.56 1.76 1.56 98.09 0.17 98.25 
32.30 5.05 5.24 10.01 0.03 0.59 0.00 0.24 0.31 0.00 1.56 1.76 1.56 1.36 98.09 0.18 98.26 
32.35 5.05 5.27 10.01 0.04 0.61 0.00 0.24 0.30 0.00 1.76 1.56 1.36 1.56 98.09 0.18 98.27 
32.40 5.05 5.30 10.01 0.06 0.62 0.00 0.25 0.29 0.00 1.56 1.36 1.56 1.76 98.09 0.19 98.28 
32.45 5.06 5.33 10.01 0.07 0.63 0.00 0.26 0.27 0.00 1.56 1.76 1.56 1.36 98.09 0.20 98.29 
32.50 5.06 5.36 10.01 0.08 0.65 0.00 0.26 0.26 0.00 1.76 1.56 1.36 1.56 98.09 0.21 98.30 
32.55 5.07 5.40 10.01 0.10 0.66 0.00 0.27 0.24 0.00 1.56 1.36 1.56 1.76 98.09 0.22 98.31 
32.60 5.07 5.43 10.01 0.11 0.67 0.00 0.27 0.22 0.00 1.36 1.56 1.76 1.56 98.09 0.23 98.32 
32.65 5.08 5.47 10.01 0.12 0.68 0.00 0.28 0.21 -0.00 1.56 1.76 1.56 1.36 98.09 0.24 98.33 
32.70 5.09 5.50 10.01 0.14 0.69 0.00 0.29 0.20 -0.00 1.76 1.56 1.36 1.56 98.09 0.25 98.34 
32.75 5.09 5.54 10.01 0.15 0.70 0.00 0.29 0.18 -0.00 1.56 1.76 1.56 1.36 98.09 0.26 98.35 
32.80 5.10 5.57 10.01 0.17 0.71 0.00 0.29 0.17 -0.00 1.76 1.56 1.36 1.56 98.09 0.26 98.35 
32.85 5.11 5.61 10.01 0.18 0.72 0.00 0.29 0.15 -0.00 1.56 1.36 1.56 1.76 98.09 0.27 98.36 
32.90 5.12 5.64 10.01 0.20 0.72 0.00 0.30 0.14 -0.00 1.36 1.56 1.76 1.56 98.09 0.28 98.37 
32.95 5.13 5.68 10.01 0.21 0.73 0.00 0.30 0.12 -0.00 1.56 1.76 1.56 1.36 98.09 0.29 98.38 
33.00 5.15 5.72 10.01 0.23 0.73 0.00 0.30 0.11 -0.00 1.76 1.56 1.36 1.56 98.09 0.30 98.39 
33.05 5.16 5.75 10.01 0.24 0.74 -0.00 0.30 0.09 -0.04 1.45 1.46 1.66 1.65 98.09 0.30 98.39 
33.10 5.17 5.79 10.01 0.26 0.74 -0.00 0.31 0.08 0.02 1.56 1.76 1.56 1.36 98.09 0.31 98.40 
33.15 5.19 5.83 10.01 0.27 0.75 -0.00 0.31 0.07 0.00 1.76 1.56 1.36 1.56 98.09 0.32 98.41 
33.20 5.20 5.87 10.01 0.29 0.75 -0.00 0.31 0.05 0.01 1.56 1.36 1.56 1.76 98.09 0.32 98.41 
33.25 5.22 5.90 10.01 0.30 0.75 0.00 0.31 0.03 0.00 1.56 1.76 1.56 1.36 98.09 0.33 98.42 
33.30 5.23 5.94 10.01 0.32 0.75 0.00 0.30 0.02 0.00 1.76 1.56 1.36 1.56 98.09 0.33 98.42 
33.35 5.25 5.98 10.01 0.33 0.75 0.00 0.30 0.00 0.00 1.36 1.56 1.76 1.56 98.09 0.34 98.43 
33.40 5.27 6.02 10.01 0.35 0.75 0.00 0.30 -0.01 0.00 1.56 1.76 1.56 1.36 98.09 0.34 98.43 
33.45 5.29 6.05 10.01 0.36 0.75 0.00 0.30 -0.02 0.00 1.76 1.56 1.36 1.56 98.09 0.35 98.44 
33.50 5.30 6.09 10.01 0.38 0.75 0.00 0.29 -0.04 0.00 1.56 1.36 1.56 1.76 98.09 0.35 98.44 
33.55 5.32 6.13 10.01 0.39 0.74 0.00 0.29 -0.06 0.00 1.36 1.56 1.76 1.56 98.09 0.35 98.45 
33.60 5.35 6.17 10.01 0.41 0.74 0.00 0.29 -0.07 0.00 1.56 1.76 1.56 1.36 98.09 0.36 98.45 
33.65 5.37 6.20 10.01 0.42 0.74 0.00 0.28 -0.08 -0.00 1.56 1.76 1.56 1.36 98.09 0.36 98.45 
33.70 5.39 6.24 10.01 0.43 0.73 0.00 0.28 -0.09 -0.00 1.76 1.56 1.36 1.56 98.09 0.36 98.46 
33.75 5.41 6.28 10.01 0.45 0.73 0.00 0.27 -0.11 -0.00 1.56 1.36 1.56 1.76 98.09 0.36 98.46 
33.80 5.43 6.31 10.01 0.46 0.72 0.00 0.27 -0.12 -0.00 1.36 1.56 1.76 1.56 98.09 0.37 98.46 
33.85 5.46 6.35 10.01 0.47 0.71 0.00 0.26 -0.14 -0.00 1.56 1.76 1.56 1.36 98.09 0.37 98.46 
33.90 5.48 6.38 10.01 0.49 0.71 0.00 0.26 -0.15 -0.00 1.76 1.56 1.36 1.56 98.09 0.37 98.46 
33.95 5.51 6.42 10.01 0.50 0.70 0.00 0.25 -0.16 -0.00 1.36 1.56 1.76 1.56 98.09 0.37 98.46 
34.00 5.53 6.45 10.01 0.51 0.69 0.00 0.25 -0.17 -0.00 1.56 1.76 1.56 1.36 98.09 0.37 98.46 
34.05 5.56 6.48 10.01 0.52 0.68 0.00 0.24 -0.18 -0.00 1.76 1.56 1.36 1.56 98.09 0.37 98.46 
34.10 5.59 6.52 10.01 0.54 0.67 -0.00 0.23 -0.19 -0.04 1.46 1.46 1.66 1.66 98.09 0.37 98.46 
34.15 5.62 6.55 10.01 0.55 0.66 -0.00 0.22 -0.20 0.02 1.56 1.76 1.56 1.36 98.09 0.37 98.46 
34.20 5.64 6.58 10.01 0.56 0.65 -0.00 0.21 -0.21 0.00 1.76 1.56 1.36 1.56 98.09 0.37 98.46 
34.25 5.67 6.61 10.01 0.57 0.64 -0.00 0.20 -0.22 -0.02 1.53 1.39 1.59 1.73 98.09 0.37 98.46 
34.30 5.70 6.65 10.01 0.58 0.63 -0.00 0.19 -0.24 0.01 1.36 1.56 1.76 1.56 98.09 0.36 98.46 
34.35 5.73 6.68 10.01 0.59 0.62 -0.00 0.19 -0.24 0.01 1.56 1.76 1.56 1.36 98.09 0.36 98.45 
34.40 5.76 6.71 10.01 0.60 0.60 -0.00 0.18 -0.25 -0.03 1.66 1.46 1.46 1.66 98.09 0.36 98.45 
34.45 5.79 6.74 10.01 0.60 0.59 -0.00 0.17 -0.26 0.02 1.36 1.56 1.76 1.56 98.09 0.36 98.45 
34.50 5.82 6.76 10.01 0.61 0.58 -0.00 0.16 -0.27 0.01 1.56 1.76 1.56 1.36 98.09 0.35 98.44 
34.55 5.85 6.79 10.01 0.62 0.56 -0.00 0.15 -0.28 -0.01 1.74 1.58 1.38 1.54 98.09 0.35 98.44 
34.60 5.89 6.82 10.01 0.63 0.55 -0.00 0.14 -0.29 0.01 1.36 1.56 1.76 1.56 98.09 0.35 98.43 
34.65 5.92 6.85 10.01 0.63 0.53 -0.00 0.13 -0.29 0.01 1.56 1.76 1.56 1.36 98.09 0.34 98.43 
34.70 5.95 6.87 10.01 0.64 0.52 0.00 0.12 -0.30 0.01 1.76 1.56 1.36 1.56 98.09 0.34 98.43 
34.75 5.98 6.90 10.01 0.65 0.50 0.00 0.11 -0.30 0.00 1.56 1.36 1.56 1.76 98.09 0.34 98.42 
34.80 6.01 6.92 10.01 0.65 0.49 0.00 0.10 -0.31 0.00 1.36 1.56 1.76 1.56 98.09 0.33 98.42 
34.85 6.05 6.94 10.01 0.66 0.47 0.00 0.09 -0.32 0.00 1.56 1.76 1.56 1.36 98.09 0.33 98.41 
34.90 6.08 6.97 10.01 0.66 0.46 0.00 0.08 -0.32 0.00 1.56 1.36 1.56 1.76 98.09 0.32 98.41 
34.95 6.11 6.99 10.01 0.66 0.44 0.00 0.07 -0.33 0.00 1.36 1.56 1.76 1.56 98.09 0.32 98.41 
35.00 6.15 7.01 10.01 0.67 0.42 0.00 0.07 -0.33 0.00 1.56 1.76 1.56 1.36 98.09 0.31 98.40 
35.05 6.18 7.03 10.01 0.67 0.41 0.00 0.06 -0.33 -0.00 1.56 1.76 1.56 1.36 98.09 0.31 98.40 
35.10 6.21 7.05 10.01 0.67 0.39 0.00 0.04 -0.33 -0.00 1.76 1.56 1.36 1.56 98.09 0.30 98.39 
35.15 6.25 7.07 10.01 0.67 0.37 0.00 0.03 -0.34 -0.00 1.56 1.36 1.56 1.76 98.09 0.30 98.39 
35.20 6.28 7.08 10.01 0.67 0.36 0.00 0.02 -0.34 -0.00 1.36 1.56 1.76 1.56 98.09 0.29 98.38 
35.25 6.32 7.10 10.01 0.67 0.34 0.00 0.01 -0.34 -0.00 1.56 1.76 1.56 1.36 98.09 0.29 98.38 
35.30 6.35 7.11 10.01 0.67 0.32 0.00 0.00 -0.34 -0.00 1.56 1.36 1.56 1.76 98.09 0.28 98.37 
35.35 6.38 7.13 10.01 0.67 0.31 0.00 -0.01 -0.35 -0.00 1.36 1.56 1.76 1.56 98.09 0.27 98.37 
35.40 6.42 7.14 10.01 0.67 0.29 0.00 -0.01 -0.35 -0.00 1.56 1.76 1.56 1.36 98.09 0.27 98.36 
35.45 6.45 7.16 10.01 0.67 0.27 -0.00 -0.02 -0.34 -0.03 1.61 1.71 1.51 1.41 98.09 0.26 98.35 
35.50 6.48 7.17 10.01 0.67 0.25 -0.00 -0.03 -0.34 0.01 1.76 1.56 1.36 1.56 98.09 0.26 98.35 
35.55 6.52 7.18 10.01 0.67 0.24 -0.00 -0.05 -0.34 0.00 1.56 1.36 1.56 1.76 98.09 0.25 98.34 
35.60 6.55 7.19 10.01 0.67 0.22 -0.00 -0.06 -0.34 0.00 1.36 1.56 1.76 1.56 98.09 0.25 98.34 
35.65 6.58 7.20 10.01 0.66 0.20 -0.00 -0.06 -0.34 0.00 1.56 1.76 1.56 1.36 98.09 0.24 98.33 
35.70 6.62 7.21 10.01 0.66 0.19 0.00 -0.08 -0.34 0.00 1.56 1.36 1.56 1.76 98.09 0.23 98.33 
35.75 6.65 7.22 10.01 0.65 0.17 0.00 -0.08 -0.34 0.00 1.36 1.56 1.76 1.56 98.09 0.23 98.32 
35.80 6.68 7.22 10.01 0.65 0.15 0.00 -0.09 -0.34 0.00 1.56 1.76 1.56 1.36 98.09 0.22 98.31 
35.85 6.71 7.23 10.01 0.65 0.13 0.00 -0.10 -0.33 0.00 1.76 1.56 1.36 1.56 98.09 0.22 98.31 
35.90 6.75 7.24 10.01 0.64 0.12 0.00 -0.11 -0.33 0.00 1.36 1.56 1.76 1.56 98.09 0.21 98.30 
35.95 6.78 7.24 10.01 0.63 0.10 0.00 -0.12 -0.33 0.00 1.56 1.76 1.56 1.36 98.09 0.21 98.30 
36.00 6.81 7.24 10.01 0.63 0.09 0.00 -0.13 -0.32 0.00 1.76 1.56 1.36 1.56 98.09 0.20 98.29 
36.05 6.84 7.25 10.01 0.62 0.07 0.00 -0.14 -0.32 -0.00 1.56 1.36 1.56 1.76 98.09 0.19 98.29 
36.10 6.87 7.25 10.01 0.61 0.05 0.00 -0.15 -0.31 -0.00 1.36 1.56 1.76 1.56 98.09 0.19 98.28 
36.15 6.90 7.25 10.01 0.60 0.04 -0.00 -0.16 -0.31 -0.04 1.44 1.64 1.68 1.48 98.09 0.18 98.27 
36.20 6.93 7.25 10.01 0.60 0.02 -0.00 -0.17 -0.30 0.02 1.76 1.56 1.36 1.56 98.09 0.18 98.27 
36.25 6.96 7.25 10.01 0.59 0.01 -0.00 -0.18 -0.30 0.01 1.56 1.36 1.56 1.76 98.09 0.17 98.26 
36.30 6.99 7.25 10.01 0.58 -0.01 -0.00 -0.19 -0.30 0.01 1.36 1.56 1.76 1.56 98.09 0.17 98.26 
36.35 7.01 7.25 10.01 0.57 -0.02 -0.00 -0.19 -0.29 0.00 1.36 1.56 1.76 1.56 98.09 0.16 98.25 
36.40 7.04 7.25 10.01 0.56 -0.03 -0.00 -0.20 -0.29 0.00 1.56 1.76 1.56 1.36 98.09 0.16 98.25 
36.45 7.07 7.25 10.01 0.55 -0.05 0.00 -0.21 -0.28 0.00 1.76 1.56 1.36 1.56 98.09 0.15 98.24 
36.50 7.10 7.24 10.01 0.54 -0.06 0.00 -0.22 -0.27 0.00 1.56 1.36 1.56 1.76 98.09 0.15 98.24 
36.55 7.12 7.24 10.01 0.53 -0.08 0.00 -0.22 -0.27 0.00 1.36 1.56 1.76 1.56 98.09 0.14 98.23 
36.60 7.15 7.23 10.01 0.51 -0.09 0.00 -0.22 -0.26 0.00 1.56 1.76 1.56 1.36 98.09 0.14 98.23 
36.65 7.17 7.23 10.01 0.50 -0.10 0.00 -0.23 -0.25 0.00 1.56 1.36 1.56 1.76 98.09 0.13 98.22 
36.70 7.20 7.22 10.01 0.49 -0.11 0.00 -0.24 -0.25 0.00 1.36 1.56 1.76 1.56 98.09 0.13 98.22 
36.75 7.22 7.22 10.01 0.48 -0.13 0.00 -0.24 -0.24 0.00 1.56 1.76 1.56 1.36 98.09 0.12 98.21 
36.80 7.24 7.21 10.01 0.47 -0.14 0.00 -0.24 -0.23 0.00 1.76 1.56 1.36 1.56 98.09 0.12 98.21 
36.85 7.27 7.20 10.01 0.45 -0.15 0.00 -0.25 -0.22 -0.00 1.56 1.36 1.56 1.76 98.09 0.11 98.21 
36.90 7.29 7.19 10.01 0.44 -0.16 0.00 -0.26 -0.22 -0.00 1.36 1.56 1.76 1.56 98.09 0.11 98.20 
36.95 7.31 7.18 10.01 0.43 -0.17 0.00 -0.26 -0.21 -0.00 1.56 1.76 1.56 1.36 98.09 0.11 98.20 
37.00 7.33 7.17 10.01 0.42 -0.18 0.00 -0.26 -0.20 -0.00 1.76 1.56 1.36 1.56 98.09 0.10 98.19 
37.05 7.35 7.17 10.01 0.40 -0.19 0.00 -0.27 -0.19 -0.00 1.56 1.36 1.56 1.76 98.09 0.10 98.19 
37.10 7.37 7.16 10.01 0.39 -0.20 0.00 -0.27 -0.18 -0.00 1.36 1.56 1.76 1.56 98.09 0.09 98.19 
37.15 7.39 7.14 10.01 0.37 -0.21 0.00 -0.28 -0.18 -0.00 1.56 1.76 1.56 1.36 98.09 0.09 98.18 
37.20 7.40 7.13 10.01 0.36 -0.21 0.00 -0.28 -0.16 -0.00 1.56 1.36 1.56 1.76 98.09 0.09 98.18 
37.25 7.42 7.12 10.01 0.35 -0.22 0.00 -0.28 -0.16 -0.00 1.36 1.56 1.76 1.56 98.09 0.08 98.18 
37.30 7.44 7.11 10.01 0.33 -0.23 0.00 -0.28 -0.15 -0.00 1.56 1.76 1.56 1.36 98.09 0.08 98.17 
37.35 7.45 7.10 10.01 0.32 -0.24 0.00 -0.29 -0.13 -0.00 1.76 1.56 1.36 1.56 98.09 0.08 98.17 
37.40 7.47 7.09 10.01 0.30 -0.24 0.00 -0.29 -0.13 -0.00 1.56 1.36 1.56 1.76 98.09 0.08 98.17 
37.45 7.48 7.07 10.01 0.29 -0.25 0.00 -0.29 -0.12 -0.00 1.36 1.56 1.76 1.56 98.09 0.07 98.17 
37.50 7.49 7.06 10.01 0.27 -0.25 0.00 -0.29 -0.11 -0.00 1.76 1.56 1.36 1.56 98.09 0.07 98.16 
37.55 7.51 7.05 10.01 0.26 -0.26 0.00 -0.30 -0.10 -0.00 1.56 1.36 1.56 1.76 98.09 0.07 98.16 
37.60 7.52 7.03 10.01 0.24 -0.26 0.00 -0.30 -0.10 -0.00 1.36 1.56 1.76 1.56 98.09 0.06 98.16 
37.65 7.53 7.02 10.01 0.23 -0.27 0.00 -0.30 -0.09 -0.00 1.56 1.76 1.56 1.36 98.09 0.06 98.16 
37.70 7.54 7.01 10.01 0.21 -0.27 0.00 -0.30 -0.08 -0.00 1.56 1.36 1.56 1.76 98.09 0.06 98.15 
37.75 7.55 6.99 10.01 0.20 -0.28 0.00 -0.30 -0.07 -0.00 1.36 1.56 1.76 1.56 98.09 0.06 98.15 
37.80 7.56 6.98 10.01 0.18 -0.28 0.00 -0.29 -0.06 0.00 1.56 1.76 1.56 1.36 98.09 0.06 98.15 
37.85 7.57 6.97 10.01 0.17 -0.28 0.00 -0.29 -0.05 -0.00 1.76 1.56 1.36 1.56 98.09 0.05 98.15 
37.90 7.57 6.95 10.01 0.15 -0.28 0.00 -0.29 -0.04 -0.00 1.56 1.36 1.56 1.76 98.09 0.05 98.15 
37.95 7.58 6.94 10.01 0.14 -0.28 0.00 -0.29 -0.03 -0.00 1.36 1.56 1.76 1.56 98.09 0.05 98.14 
38.00 7.59 6.92 10.01 0.13 -0.29 0.00 -0.29 -0.02 0.00 1.76 1.56 1.36 1.56 98.09 0.05 98.14 
38.05 7.59 6.91 10.01 0.11 -0.29 0.00 -0.29 -0.01 -0.00 1.56 1.36 1.56 1.76 98.09 0.05 98.14 
38.10 7.60 6.89 10.01 0.10 -0.29 0.00 -0.29 -0.01 0.00 1.36 1.56 1.76 1.56 98.09 0.05 98.14 
38.15 7.60 6.88 10.01 0.08 -0.29 0.00 -0.28 0.00 0.00 1.56 1.76 1.56 1.36 98.09 0.04 98.14 
38.20 7.60 6.86 10.01 0.07 -0.29 0.00 -0.28 0.01 0.00 1.76 1.56 1.36 1.56 98.09 0.04 98.14 
38.25 7.61 6.85 10.01 0.06 -0.29 0.00 -0.28 0.02 -0.00 1.56 1.36 1.56 1.76 98.09 0.04 98.14 
38.30 7.61 6.84 10.01 0.04 -0.28 0.00 -0.27 0.02 -0.00 1.36 1.56 1.76 1.56 98.09 0.04 98.14 
38.35 7.61 6.82 10.01 0.03 -0.28 -0.00 -0.27 0.03 -0.03 1.70 1.62 1.42 1.50 98.09 0.04 98.13 
38.40 7.61 6.81 10.01 0.01 -0.28 -0.00 -0.27 0.04 0.01 1.56 1.36 1.56 1.76 98.09 0.04 98.13 
38.45 7.61 6.79 10.01 0.00 -0.28 -0.00 -0.26 0.04 0.00 1.36 1.56 1.76 1.56 98.09 0.04 98.13 
38.50 7.61 6.78 10.01 -0.01 -0.28 -0.00 -0.25 0.05 0.00 1.56 1.76 1.56 1.36 98.09 0.04 98.13 
38.55 7.61 6.77 10.01 -0.02 -0.27 -0.00 -0.25 0.06 0.00 1.76 1.56 1.36 1.56 98.09 0.04 98.13 
38.60 7.60 6.75 10.01 -0.04 -0.27 0.00 -0.25 0.07 0.00 1.56 1.36 1.56 1.76 98.09 0.04 98.13 
38.65 7.60 6.74 10.01 -0.05 -0.27 0.00 -0.24 0.07 0.00 1.36 1.56 1.76 1.56 98.09 0.04 98.13 
38.70 7.60 6.73 10.01 -0.06 -0.26 0.00 -0.23 0.08 0.00 1.56 1.76 1.56 1.36 98.09 0.04 98.13 
38.75 7.59 6.72 10.01 -0.07 -0.26 0.00 -0.23 0.09 0.00 1.76 1.56 1.36 1.56 98.09 0.04 98.13 
38.80 7.59 6.70 10.01 -0.08 -0.25 0.00 -0.23 0.10 0.00 1.56 1.36 1.56 1.76 98.09 0.04 98.13 
38.85 7.59 6.69 10.01 -0.09 -0.25 0.00 -0.22 0.10 0.00 1.36 1.56 1.76 1.56 98.09 0.03 98.13 
38.90 7.58 6.68 10.01 -0.10 -0.24 0.00 -0.22 0.11 0.00 1.76 1.56 1.36 1.56 98.09 0.03 98.13 
38.95 7.57 6.67 10.01 -0.11 -0.24 0.00 -0.21 0.11 0.00 1.56 1.36 1.56 1.76 98.09 0.03 98.13 
39.00 7.57 6.66 10.01 -0.13 -0.23 0.00 -0.20 0.11 0.00 1.36 1.56 1.76 1.56 98.09 0.03 98.13 
39.05 7.56 6.64 10.01 -0.13 -0.22 0.00 -0.19 0.12 0.00 1.56 1.76 1.56 1.36 98.09 0.03 98.13 
39.10 7.55 6.63 10.01 -0.14 -0.22 0.00 -0.19 0.13 -0.00 1.76 1.56 1.36 1.56 98.10 0.03 98.13 
39.15 7.54 6.62 10.01 -0.15 -0.21 0.00 -0.19 0.13 -0.00 1.56 1.36 1.56 1.76 98.10 0.03 98.13 
39.20 7.54 6.61 10.01 -0.16 -0.20 -0.00 -0.18 0.13 -0.04 1.43 1.63 1.69 1.49 98.09 0.03 98.13 
39.25 7.53 6.60 10.01 -0.17 -0.20 -0.00 -0.17 0.14 0.01 1.76 1.56 1.36 1.56 98.09 0.03 98.13 
39.30 7.52 6.59 10.01 -0.18 -0.19 -0.00 -0.17 0.14 0.00 1.56 1.36 1.56 1.76 98.09 0.03 98.13 
39.35 7.51 6.58 10.01 -0.19 -0.18 -0.00 -0.16 0.14 0.01 1.36 1.56 1.76 1.56 98.09 0.03 98.13 
39.40 7.50 6.58 10.01 -0.19 -0.18 -0.00 -0.15 0.15 0.00 1.56 1.76 1.56 1.36 98.09 0.03 98.13 
39.45 7.49 6.57 10.01 -0.20 -0.17 0.00 -0.14 0.15 0.00 1.76 1.56 1.36 1.56 98.09 0.03 98.13 
39.50 7.48 6.56 10.01 -0.21 -0.16 0.00 -0.14 0.16 0.00 1.56 1.36 1.56 1.76 98.09 0.03 98.13 
39.55 7.47 6.55 10.01 -0.22 -0.15 -0.00 -0.13 0.16 -0.02 1.40 1.60 1.72 1.52 98.09 0.03 98.13 
39.60 7.46 6.55 10.01 -0.22 -0.14 -0.00 -0.12 0.16 -0.03 1.66 1.66 1.46 1.46 98.09 0.03 98.13 
39.65 7.44 6.54 10.01 -0.23 -0.14 -0.00 -0.12 0.16 0.02 1.76 1.56 1.36 1.56 98.09 0.04 98.13 
39.70 7.43 6.53 10.01 -0.23 -0.13 -0.00 -0.11 0.17 0.01 1.56 1.36 1.56 1.76 98.09 0.04 98.13 
39.75 7.42 6.53 10.01 -0.24 -0.12 -0.00 -0.10 0.16 0.01 1.36 1.56 1.76 1.56 98.09 0.04 98.13 
39.80 7.41 6.52 10.01 -0.24 -0.11 -0.00 -0.10 0.17 0.01 1.56 1.76 1.56 1.36 98.09 0.04 98.13 
39.85 7.40 6.52 10.01 -0.25 -0.10 0.00 -0.09 0.17 0.01 1.76 1.56 1.36 1.56 98.09 0.04 98.13 
39.90 7.38 6.51 10.01 -0.25 -0.09 0.00 -0.09 0.17 0.00 1.56 1.36 1.56 1.76 98.09 0.04 98.13 
39.95 7.37 6.51 10.01 -0.26 -0.09 0.00 -0.08 0.17 0.00 1.36 1.56 1.76 1.56 98.09 0.04 98.13 
40.00 7.36 6.50 10.01 -0.26 -0.08 0.00 -0.07 0.17 0.00 1.56 1.76 1.56 1.36 98.09 0.04 98.13 
40.05 7.34 6.50 10.01 -0.26 -0.07 0.00 -0.06 0.18 0.00 1.76 1.56 1.36 1.56 98.09 0.04 98.13 
40.10 7.33 6.50 10.01 -0.26 -0.06 0.00 -0.06 0.18 0.00 1.56 1.36 1.56 1.76 98.09 0.04 98.13 
40.15 7.32 6.50 10.01 -0.27 -0.05 0.00 -0.05 0.18 0.00 1.36 1.56 1.76 1.56 98.09 0.04 98.13 
40.20 7.30 6.49 10.01 -0.27 -0.04 0.00 -0.04 0.18 -0.00 1.76 1.56 1.36 1.56 98.09 0.04 98.13 
40.25 7.29 6.49 10.01 -0.27 -0.03 0.00 -0.04 0.18 -0.00 1.56 1.36 1.56 1.76 98.09 0.04 98.13 
40.30 7.28 6.49 10.01 -0.27 -0.02 0.00 -0.03 0.17 -0.00 1.56 1.76 1.56 1.36 98.09 0.04 98.13 
40.35 7.26 6.49 10.01 -0.27 -0.02 0.00 -0.02 0.17 -0.00 1.76 1.56 1.36 1.56 98.10 0.04 98.13 
40.40 7.25 6.49 10.01 -0.28 -0.01 0.00 -0.02 0.17 -0.00 1.56 1.36 1.56 1.76 98.10 0.04 98.13 
40.45 7.24 6.49 10.01 -0.28 0.00 0.00 -0.01 0.17 -0.00 1.36 1.56 1.76 1.56 98.10 0.04 98.13 
40.50 7.22 6.49 10.01 -0.28 0.01 0.00 -0.00 0.16 -0.00 1.56 1.76 1.56 1.36 98.10 0.04 98.13 
40.55 7.21 6.49 10.01 -0.28 0.02 0.00 0.00 0.16 -0.00 1.76 1.56 1.36 1.56 98.10 0.04 98.13 
40.60 7.19 6.49 10.01 -0.28 0.03 0.00 0.01 0.16 -0.00 1.56 1.36 1.56 1.76 98.10 0.04 98.14 
40.65 7.18 6.50 10.01 -0.28 0.03 0.00 0.01 0.16 -0.00 1.36 1.56 1.76 1.56 98.10 0.04 98.14 
40.70 7.17 6.50 10.01 -0.27 0.04 0.00 0.02 0.15 -0.00 1.56 1.76 1.56 1.36 98.10 0.04 98.14 
40.75 7.15 6.50 10.01 -0.27 0.05 0.00 0.03 0.15 -0.00 1.76 1.56 1.36 1.56 98.10 0.04 98.14 
40.80 7.14 6.50 10.01 -0.27 0.06 0.00 0.03 0.15 -0.00 1.56 1.36 1.56 1.76 98.10 0.04 98.14 
40.85 7.13 6.51 10.01 -0.27 0.06 0.00 0.04 0.15 -0.00 1.36 1.56 1.76 1.56 98.10 0.04 98.14 
40.90 7.11 6.51 10.01 -0.27 0.07 0.00 0.05 0.15 -0.00 1.56 1.76 1.56 1.36 98.10 0.04 98.14 
40.95 7.10 6.52 10.01 -0.26 0.08 0.00 0.05 0.15 -0.00 1.76 1.56 1.36 1.56 98.10 0.04 98.14 
41.00 7.09 6.52 10.01 -0.26 0.09 0.00 0.06 0.14 -0.00 1.56 1.36 1.56 1.76 98.10 0.04 98.14 
41.05 7.07 6.52 10.01 -0.26 0.09 0.00 0.06 0.14 -0.00 1.56 1.76 1.56 1.36 98.10 0.04 98.14 
41.10 7.06 6.53 10.01 -0.26 0.10 0.00 0.07 0.14 -0.00 1.76 1.56 1.36 1.56 98.10 0.04 98.14 
41.15 7.05 6.54 10.01 -0.25 0.11 -0.00 0.07 0.13 -0.03 1.51 1.41 1.61 1.71 98.10 0.04 98.13 
41.20 7.04 6.54 10.01 -0.25 0.11 -0.00 0.07 0.13 0.01 1.36 1.56 1.76 1.56 98.10 0.04 98.13 
41.25 7.02 6.55 10.01 -0.24 0.12 -0.00 0.08 0.12 0.00 1.56 1.76 1.56 1.36 98.10 0.04 98.13 
41.30 7.01 6.55 10.01 -0.24 0.12 -0.00 0.09 0.12 0.00 1.76 1.56 1.36 1.56 98.10 0.04 98.13 
41.35 7.00 6.56 10.01 -0.24 0.13 -0.00 0.09 0.12 0.00 1.56 1.36 1.56 1.76 98.10 0.04 98.13 
41.40 6.99 6.57 10.01 -0.23 0.14 -0.00 0.09 0.11 -0.03 1.41 1.61 1.71 1.51 98.10 0.04 98.13 
41.45 6.98 6.57 10.01 -0.23 0.14 -0.00 0.10 0.11 0.01 1.56 1.76 1.56 1.36 98.10 0.04 98.13 
41.50 6.97 6.58 10.01 -0.22 0.15 -0.00 0.10 0.11 0.01 1.76 1.56 1.36 1.56 98.10 0.04 98.13 
41.55 6.96 6.59 10.01 -0.22 0.15 -0.00 0.10 0.11 0.01 1.56 1.36 1.56 1.76 98.09 0.03 98.13 
41.60 6.95 6.60 10.01 -0.21 0.16 -0.00 0.11 0.10 -0.04 1.45 1.65 1.67 1.47 98.09 0.03 98.13 
41.65 6.94 6.61 10.01 -0.20 0.16 -0.00 0.11 0.10 -0.02 1.64 1.68 1.48 1.44 98.09 0.03 98.13 
41.70 6.93 6.61 10.01 -0.20 0.17 -0.00 0.11 0.09 0.02 1.76 1.56 1.36 1.56 98.09 0.03 98.12 
41.75 6.92 6.62 10.01 -0.19 0.17 -0.00 0.11 0.09 0.01 1.56 1.36 1.56 1.76 98.09 0.03 98.12 
41.80 6.91 6.63 10.01 -0.19 0.17 -0.00 0.11 0.08 0.01 1.36 1.56 1.76 1.56 98.09 0.03 98.12 
41.85 6.90 6.64 10.01 -0.18 0.18 -0.00 0.12 0.08 0.01 1.56 1.76 1.56 1.36 98.09 0.03 98.12 
41.90 6.89 6.65 10.01 -0.18 0.18 0.00 0.12 0.08 0.01 1.76 1.56 1.36 1.56 98.09 0.03 98.12 
41.95 6.88 6.66 10.01 -0.17 0.19 0.00 0.12 0.07 0.01 1.56 1.36 1.56 1.76 98.09 0.03 98.12 
42.00 6.87 6.67 10.01 -0.16 0.19 0.00 0.12 0.06 0.00 1.36 1.56 1.76 1.56 98.09 0.03 98.12 
42.05 6.87 6.68 10.01 -0.16 0.19 0.00 0.12 0.06 0.00 1.56 1.76 1.56 1.36 98.09 0.03 98.12 
42.10 6.86 6.69 10.01 -0.15 0.19 0.00 0.12 0.06 0.00 1.76 1.56 1.36 1.56 98.09 0.03 98.12 
42.15 6.85 6.70 10.01 -0.15 0.20 0.00 0.12 0.05 0.00 1.56 1.36 1.56 1.76 98.09 0.03 98.12 
42.20 6.84 6.71 10.01 -0.14 0.20 0.00 0.13 0.04 0.00 1.36 1.56 1.76 1.56 98.09 0.03 98.12 
42.25 6.84 6.72 10.01 -0.13 0.20 0.00 0.13 0.04 -0.00 1.56 1.76 1.56 1.36 98.09 0.03 98.12 
42.30 6.83 6.73 10.01 -0.13 0.20 0.00 0.13 0.04 -0.00 1.76 1.56 1.36 1.56 98.09 0.03 98.12 
42.35 6.83 6.74 10.01 -0.12 0.21 0.00 0.13 0.03 -0.00 1.36 1.56 1.76 1.56 98.09 0.03 98.12 
42.40 6.82 6.75 10.01 -0.11 0.21 0.00 0.13 0.03 -0.00 1.56 1.76 1.56 1.36 98.10 0.03 98.12 
42.45 6.81 6.76 10.01 -0.11 0.21 0.00 0.13 0.03 -0.00 1.76 1.56 1.36 1.56 98.10 0.03 98.12 
42.50 6.81 6.77 10.01 -0.10 0.21 0.00 0.13 0.03 -0.00 1.56 1.36 1.56 1.76 98.10 0.03 98.12 
42.55 6.81 6.78 10.01 -0.09 0.21 0.00 0.13 0.02 -0.00 1.36 1.56 1.76 1.56 98.10 0.03 98.12 
42.60 6.80 6.79 10.01 -0.09 0.21 0.00 0.13 0.02 -0.00 1.56 1.76 1.56 1.36 98.10 0.03 98.12 
42.65 6.80 6.80 10.01 -0.08 0.21 0.00 0.13 0.02 -0.00 1.76 1.56 1.36 1.56 98.10 0.03 98.12 
42.70 6.79 6.81 10.01 -0.07 0.21 0.00 0.13 0.02 -0.00 1.56 1.36 1.56 1.76 98.10 0.03 98.12 
42.75 6.79 6.82 10.01 -0.07 0.21 0.00 0.13 0.01 -0.00 1.56 1.76 1.56 1.36 98.10 0.03 98.12 
42.80 6.79 6.83 10.01 -0.06 0.21 0.00 0.13 0.01 -0.00 1.76 1.56 1.36 1.56 98.10 0.02 98.12 
42.85 6.79 6.84 10.01 -0.05 0.22 0.00 0.12 0.00 -0.00 1.56 1.36 1.56 1.76 98.10 0.02 98.12 
42.90 6.78 6.86 10.01 -0.05 0.21 0.00 0.12 -0.00 -0.00 1.36 1.56 1.76 1.56 98.10 0.02 98.12 
42.95 6.78 6.87 10.01 -0.04 0.21 0.00 0.12 -0.01 -0.00 1.56 1.76 1.56 1.36 98.10 0.02 98.12 
43.00 6.78 6.88 10.01 -0.04 0.21 -0.00 0.12 -0.01 -0.04 1.69 1.49 1.43 1.63 98.10 0.02 98.12 
43.05 6.78 6.89 10.01 -0.03 0.21 -0.00 0.12 -0.01 0.01 1.56 1.36 1.56 1.76 98.10 0.02 98.12 
43.10 6.78 6.90 10.01 -0.02 0.21 -0.00 0.12 -0.02 0.00 1.36 1.56 1.76 1.56 98.10 0.02 98.12 
43.15 6.78 6.91 10.01 -0.02 0.21 -0.00 0.12 -0.03 0.00 1.56 1.76 1.56 1.36 98.10 0.02 98.12 
43.20 6.78 6.92 10.01 -0.01 0.21 -0.00 0.12 -0.03 0.00 1.76 1.56 1.36 1.56 98.10 0.02 98.12 
43.25 6.78 6.93 10.01 -0.01 0.21 -0.00 0.11 -0.03 -0.03 1.49 1.43 1.63 1.69 98.10 0.02 98.12 
43.30 6.78 6.94 10.01 -0.00 0.21 -0.00 0.12 -0.04 0.02 1.36 1.56 1.76 1.56 98.09 0.02 98.12 
43.35 6.78 6.95 10.01 0.00 0.20 -0.00 0.12 -0.04 0.01 1.56 1.76 1.56 1.36 98.09 0.02 98.12 
43.40 6.78 6.96 10.01 0.01 0.20 -0.00 0.12 -0.04 0.01 1.76 1.56 1.36 1.56 98.09 0.02 98.11 
43.45 6.78 6.97 10.01 0.02 0.20 -0.00 0.11 -0.05 0.01 1.56 1.36 1.56 1.76 98.09 0.02 98.11 
43.50 6.78 6.98 10.01 0.02 0.20 0.00 0.11 -0.05 0.00 1.36 1.56 1.76 1.56 98.09 0.02 98.11 
43.55 6.78 6.99 10.01 0.03 0.19 0.00 0.11 -0.05 0.00 1.56 1.76 1.56 1.36 98.09 0.02 98.11 
43.60 6.78 7.00 10.01 0.03 0.19 0.00 0.11 -0.06 0.00 1.76 1.56 1.36 1.56 98.10 0.02 98.11 
43.65 6.78 7.01 10.01 0.04 0.19 0.00 0.11 -0.06 0.00 1.36 1.56 1.76 1.56 98.10 0.02 98.11 
43.70 6.79 7.02 10.01 0.04 0.19 0.00 0.11 -0.06 0.00 1.56 1.76 1.56 1.36 98.10 0.02 98.11 
43.75 6.79 7.03 10.01 0.05 0.18 0.00 0.11 -0.06 0.00 1.76 1.56 1.36 1.56 98.10 0.02 98.11 
43.80 6.79 7.04 10.01 0.05 0.18 0.00 0.10 -0.06 0.00 1.56 1.36 1.56 1.76 98.10 0.02 98.11 
43.85 6.79 7.04 10.01 0.06 0.18 -0.00 0.10 -0.06 -0.04 1.45 1.65 1.67 1.47 98.09 0.02 98.11 
43.90 6.80 7.05 10.01 0.06 0.17 -0.00 0.10 -0.07 0.02 1.76 1.56 1.36 1.56 98.09 0.02 98.11 
43.95 6.80 7.06 10.01 0.07 0.17 -0.00 0.09 -0.07 0.01 1.56 1.36 1.56 1.76 98.09 0.02 98.11 
44.00 6.81 7.07 10.01 0.07 0.17 -0.00 0.09 -0.08 0.01 1.36 1.56 1.76 1.56 98.09 0.02 98.11 
44.05 6.81 7.08 10.01 0.08 0.16 0.00 0.09 -0.08 0.00 1.56 1.76 1.56 1.36 98.09 0.02 98.11 
44.10 6.81 7.08 10.01 0.08 0.16 0.00 0.09 -0.08 0.00 1.76 1.56 1.36 1.56 98.09 0.02 98.11 
44.15 6.82 7.09 10.01 0.09 0.15 0.00 0.08 -0.08 0.00 1.36 1.56 1.76 1.56 98.10 0.02 98.11 
44.20 6.82 7.10 10.01 0.09 0.15 0.00 0.08 -0.08 0.00 1.56 1.76 1.56 1.36 98.10 0.02 98.11 
44.25 6.83 7.11 10.01 0.09 0.15 0.00 0.08 -0.08 0.00 1.76 1.56 1.36 1.56 98.10 0.02 98.11 
44.30 6.83 7.11 10.01 0.10 0.14 0.00 0.07 -0.08 0.00 1.56 1.36 1.56 1.76 98.10 0.01 98.11 
44.35 6.84 7.12 10.01 0.10 0.14 0.00 0.07 -0.09 0.00 1.36 1.56 1.76 1.56 98.10 0.01 98.11 
44.40 6.84 7.13 10.01 0.10 0.13 0.00 0.07 -0.09 0.00 1.56 1.76 1.56 1.36 98.10 0.01 98.11 
44.45 6.85 7.13 10.01 0.11 0.13 0.00 0.06 -0.09 -0.00 1.76 1.56 1.36 1.56 98.10 0.01 98.11 
44.50 6.85 7.14 10.01 0.11 0.12 0.00 0.05 -0.09 -0.00 1.56 1.36 1.56 1.76 98.10 0.01 98.11 
44.55 6.86 7.14 10.01 0.11 0.12 0.00 0.05 -0.09 -0.00 1.36 1.56 1.76 1.56 98.10 0.01 98.11 
44.60 6.87 7.15 10.01 0.12 0.11 0.00 0.05 -0.09 -0.00 1.56 1.76 1.56 1.36 98.10 0.01 98.11 
44.65 6.87 7.16 10.01 0.12 0.11 0.00 0.04 -0.09 -0.00 1.76 1.56 1.36 1.56 98.10 0.01 98.11 
44.70 6.88 7.16 10.01 0.12 0.10 0.00 0.04 -0.10 -0.00 1.56 1.36 1.56 1.76 98.10 0.01 98.11 
44.75 6.88 7.17 10.01 0.12 0.10 0.00 0.03 -0.10 -0.00 1.36 1.56 1.76 1.56 98.10 0.01 98.11 
44.80 6.89 7.17 10.01 0.12 0.09 0.00 0.03 -0.10 -0.00 1.56 1.76 1.56 1.36 98.10 0.01 98.11 
44.85 6.90 7.17 10.01 0.12 0.09 0.00 0.03 -0.10 -0.00 1.56 1.36 1.56 1.76 98.10 0.01 98.11 
44.90 6.90 7.18 10.01 0.13 0.08 0.00 0.03 -0.10 -0.00 1.36 1.56 1.76 1.56 98.10 0.01 98.11 
44.95 6.91 7.18 10.01 0.13 0.08 0.00 0.03 -0.10 -0.00 1.56 1.76 1.56 1.36 98.10 0.01 98.11 
45.00 6.92 7.19 10.01 0.13 0.07 0.00 0.02 -0.10 -0.00 1.76 1.56 1.36 1.56 98.10 0.01 98.11 
45.05 6.92 7.19 10.01 0.13 0.07 0.00 0.02 -0.10 -0.00 1.56 1.36 1.56 1.76 98.10 0.01 98.11 
45.10 6.93 7.19 10.01 0.13 0.06 0.00 0.02 -0.10 -0.00 1.36 1.56 1.76 1.56 98.10 0.01 98.11 
45.15 6.93 7.20 10.01 0.13 0.06 0.00 0.02 -0.10 -0.00 1.56 1.76 1.56 1.36 98.10 0.01 98.11 
45.20 6.94 7.20 10.01 0.13 0.05 0.00 0.01 -0.10 -0.00 1.76 1.56 1.36 1.56 98.10 0.01 98.11 
45.25 6.95 7.20 10.01 0.13 0.05 0.00 0.01 -0.10 -0.00 1.56 1.36 1.56 1.76 98.10 0.01 98.11 
45.30 6.95 7.20 10.01 0.13 0.05 0.00 0.01 -0.10 -0.00 1.36 1.56 1.76 1.56 98.10 0.01 98.11 
45.35 6.96 7.20 10.01 0.13 0.04 0.00 0.01 -0.10 -0.00 1.56 1.76 1.56 1.36 98.10 0.01 98.11 
45.40 6.97 7.21 10.01 0.13 0.04 0.00 0.01 -0.09 -0.00 1.76 1.56 1.36 1.56 98.10 0.01 98.11 
45.45 6.97 7.21 10.01 0.13 0.03 0.00 0.00 -0.09 -0.00 1.56 1.36 1.56 1.76 98.10 0.01 98.11 
45.50 6.98 7.21 10.01 0.13 0.03 0.00 -0.00 -0.10 -0.00 1.36 1.56 1.76 1.56 98.10 0.01 98.11 
45.55 6.99 7.21 10.01 0.13 0.02 0.00 -0.00 -0.09 -0.00 1.56 1.76 1.56 1.36 98.10 0.01 98.11 
45.60 6.99 7.21 10.01 0.13 0.02 0.00 -0.00 -0.09 -0.00 1.76 1.56 1.36 1.56 98.10 0.01 98.11 
45.65 7.00 7.21 10.01 0.13 0.01 0.00 -0.01 -0.09 -0.00 1.56 1.36 1.56 1.76 98.10 0.01 98.11 
45.70 7.01 7.21 10.01 0.13 0.01 0.00 -0.01 -0.09 -0.00 1.36 1.56 1.76 1.56 98.10 0.01 98.11 
45.75 7.01 7.21 10.01 0.13 0.00 0.00 -0.01 -0.09 -0.00 1.56 1.76 1.56 1.36 98.10 0.01 98.11 
45.80 7.02 7.21 10.01 0.13 -0.00 0.00 -0.01 -0.09 -0.00 1.76 1.56 1.36 1.56 98.10 0.01 98.11 
45.85 7.03 7.21 10.01 0.13 -0.01 0.00 -0.02 -0.09 -0.00 1.56 1.36 1.56 1.76 98.10 0.01 98.11 
45.90 7.03 7.21 10.01 0.13 -0.01 0.00 -0.02 -0.09 -0.00 1.36 1.56 1.76 1.56 98.10 0.01 98.11 
45.95 7.04 7.21 10.01 0.13 -0.02 0.00 -0.02 -0.09 -0.00 1.56 1.76 1.56 1.36 98.10 0.01 98.11 
46.00 7.05 7.21 10.01 0.13 -0.02 0.00 -0.02 -0.09 -0.00 1.76 1.56 1.36 1.56 98.10 0.01 98.11 
46.05 7.05 7.21 10.01 0.13 -0.02 -0.00 -0.03 -0.09 -0.04 1.48 1.44 1.64 1.68 98.10 0.01 98.11 
46.10 7.06 7.21 10.01 0.12 -0.03 -0.00 -0.03 -0.09 0.02 1.36 1.56 1.76 1.56 98.10 0.01 98.11 
46.15 7.06 7.20 10.01 0.12 -0.03 -0.00 -0.03 -0.09 0.01 1.56 1.76 1.56 1.36 98.10 0.01 98.11 
46.20 7.07 7.20 10.01 0.12 -0.04 -0.00 -0.03 -0.08 0.01 1.76 1.56 1.36 1.56 98.10 0.01 98.11 
46.25 7.08 7.20 10.01 0.12 -0.04 -0.00 -0.04 -0.08 0.00 1.56 1.36 1.56 1.76 98.10 0.01 98.11 
46.30 7.08 7.20 10.01 0.12 -0.04 -0.00 -0.04 -0.08 0.00 1.36 1.56 1.76 1.56 98.10 0.01 98.11 
46.35 7.09 7.19 10.01 0.12 -0.05 -0.00 -0.04 -0.08 0.00 1.56 1.76 1.56 1.36 98.10 0.01 98.11 
46.40 7.09 7.19 10.01 0.11 -0.05 0.00 -0.04 -0.07 0.00 1.76 1.56 1.36 1.56 98.10 0.01 98.11 
46.45 7.10 7.19 10.01 0.11 -0.06 0.00 -0.05 -0.07 0.00 1.56 1.36 1.56 1.76 98.10 0.01 98.11 
46.50 7.10 7.19 10.01 0.11 -0.06 0.00 -0.05 -0.07 0.00 1.36 1.56 1.76 1.56 98.10 0.01 98.11 
46.55 7.11 7.18 10.01 0.11 -0.06 0.00 -0.05 -0.07 0.00 1.56 1.76 1.56 1.36 98.10 0.01 98.11 
46.60 7.12 7.18 10.01 0.10 -0.07 0.00 -0.05 -0.07 0.00 1.76 1.56 1.36 1.56 98.10 0.01 98.11 
46.65 7.12 7.18 10.01 0.10 -0.07 0.00 -0.05 -0.06 0.00 1.56 1.36 1.56 1.76 98.10 0.01 98.11 
46.70 7.13 7.17 10.01 0.10 -0.07 0.00 -0.06 -0.07 0.00 1.36 1.56 1.76 1.56 98.10 0.01 98.11 
46.75 7.13 7.17 10.01 0.10 -0.08 0.00 -0.05 -0.06 0.00 1.56 1.76 1.56 1.36 98.10 0.01 98.11 
46.80 7.13 7.16 10.01 0.09 -0.08 0.00 -0.06 -0.06 -0.00 1.76 1.56 1.36 1.56 98.10 0.01 98.11 
46.85 7.14 7.16 10.01 0.09 -0.08 0.00 -0.06 -0.06 -0.00 1.56 1.36 1.56 1.76 98.10 0.01 98.11 
46.90 7.14 7.16 10.01 0.09 -0.08 0.00 -0.06 -0.06 -0.00 1.36 1.56 1.76 1.56 98.10 0.01 98.11 
46.95 7.15 7.15 10.01 0.08 -0.09 0.00 -0.06 -0.05 -0.00 1.56 1.76 1.56 1.36 98.10 0.01 98.11 
47.00 7.15 7.15 10.01 0.08 -0.09 0.00 -0.07 -0.05 -0.00 1.76 1.56 1.36 1.56 98.10 0.01 98.11 
47.05 7.16 7.14 10.01 0.08 -0.09 0.00 -0.07 -0.05 0.00 1.56 1.36 1.56 1.76 98.10 0.01 98.11 
47.10 7.16 7.14 10.01 0.07 -0.09 0.00 -0.07 -0.05 -0.00 1.36 1.56 1.76 1.56 98.10 0.01 98.11 
47.15 7.16 7.13 10.01 0.07 -0.10 0.00 -0.07 -0.05 -0.00 1.56 1.76 1.56 1.36 98.10 0.01 98.11 
47.20 7.17 7.13 10.01 0.07 -0.10 0.00 -0.08 -0.04 -0.00 1.56 1.36 1.56 1.76 98.10 0.01 98.11 
47.25 7.17 7.12 10.01 0.06 -0.10 0.00 -0.08 -0.04 -0.00 1.36 1.56 1.76 1.56 98.10 0.01 98.11 
47.30 7.17 7.12 10.01 0.06 -0.10 0.00 -0.07 -0.04 -0.00 1.56 1.76 1.56 1.36 98.10 0.01 98.11 
47.35 7.17 7.11 10.01 0.05 -0.10 0.00 -0.07 -0.03 -0.00 1.76 1.56 1.36 1.56 98.10 0.01 98.11 
47.40 7.18 7.11 10.01 0.05 -0.11 0.00 -0.08 -0.03 -0.00 1.56 1.36 1.56 1.76 98.10 0.01 98.11 
47.45 7.18 7.10 10.01 0.05 -0.11 0.00 -0.08 -0.03 -0.00 1.36 1.56 1.76 1.56 98.10 0.01 98.11 
47.50 7.18 7.10 10.01 0.04 -0.11 0.00 -0.07 -0.02 -0.00 1.56 1.76 1.56 1.36 98.10 0.01 98.11 
47.55 7.18 7.09 10.01 0.04 -0.11 0.00 -0.08 -0.01 -0.00 1.76 1.56 1.36 1.56 98.10 0.01 98.11 
47.60 7.18 7.08 10.01 0.04 -0.11 0.00 -0.08 -0.01 -0.00 1.56 1.36 1.56 1.76 98.10 0.01 98.11 
47.65 7.19 7.08 10.01 0.03 -0.11 0.00 -0.08 -0.01 -0.00 1.36 1.56 1.76 1.56 98.10 0.01 98.11 
47.70 7.19 7.07 10.01 0.03 -0.11 0.00 -0.08 -0.01 -0.00 1.76 1.56 1.36 1.56 98.10 0.01 98.11 
47.75 7.19 7.07 10.01 0.02 -0.11 0.00 -0.08 -0.00 -0.00 1.56 1.36 1.56 1.76 98.10 0.01 98.11 
47.80 7.19 7.06 10.01 0.02 -0.11 0.00 -0.07 -0.01 -0.00 1.36 1.56 1.76 1.56 98.10 0.01 98.11 
47.85 7.19 7.06 10.01 0.02 -0.11 0.00 -0.07 -0.00 -0.00 1.56 1.76 1.56 1.36 98.10 0.01 98.11 
47.90 7.19 7.05 10.01 0.01 -0.11 0.00 -0.07 0.00 -0.00 1.76 1.56 1.36 1.56 98.10 0.01 98.11 
47.95 7.19 7.05 10.01 0.01 -0.11 0.00 -0.07 0.00 -0.00 1.56 1.36 1.56 1.76 98.10 0.01 98.11 
48.00 7.19 7.04 10.01 0.01 -0.11 0.00 -0.07 0.00 -0.00 1.36 1.56 1.76 1.56 98.10 0.01 98.11 
48.05 7.19 7.03 10.01 0.00 -0.11 0.00 -0.06 0.01 -0.00 1.56 1.76 1.56 1.36 98.10 0.01 98.11 
48.10 7.19 7.03 10.01 -0.00 -0.11 0.00 -0.06 0.01 -0.00 1.76 1.56 1.36 1.56 98.10 0.01 98.11 
48.15 7.19 7.02 10.01 -0.00 -0.11 0.00 -0.06 0.01 -0.00 1.56 1.36 1.56 1.76 98.10 0.01 98.11 
48.20 7.19 7.02 10.01 -0.01 -0.11 0.00 -0.06 0.01 -0.00 1.36 1.56 1.76 1.56 98.10 0.01 98.11 
48.25 7.19 7.01 10.01 -0.01 -0.11 0.00 -0.06 0.01 -0.00 1.56 1.76 1.56 1.36 98.10 0.01 98.11 
48.30 7.19 7.01 10.01 -0.01 -0.11 0.00 -0.06 0.02 -0.00 1.76 1.56 1.36 1.56 98.10 0.01 98.11 
48.35 7.19 7.00 10.01 -0.02 -0.11 0.00 -0.06 0.02 -0.00 1.56 1.36 1.56 1.76 98.10 0.01 98.11 
48.40 7.19 7.00 10.01 -0.02 -0.11 0.00 -0.06 0.02 -0.00 1.36 1.56 1.76 1.56 98.10 0.01 98.11 
48.45 7.19 6.99 10.01 -0.02 -0.10 0.00 -0.05 0.02 -0.00 1.56 1.76 1.56 1.36 98.10 0.01 98.11 
48.50 7.18 6.99 10.01 -0.02 -0.10 0.00 -0.05 0.03 -0.00 1.76 1.56 1.36 1.56 98.10 0.01 98.11 
48.55 7.18 6.98 10.01 -0.03 -0.10 0.00 -0.05 0.03 -0.00 1.56 1.36 1.56 1.76 98.10 0.01 98.11 
48.60 7.18 6.98 10.01 -0.03 -0.10 0.00 -0.05 0.03 -0.00 1.36 1.56 1.76 1.56 98.10 0.01 98.11 
48.65 7.18 6.97 10.01 -0.03 -0.10 0.00 -0.05 0.03 -0.00 1.56 1.76 1.56 1.36 98.10 0.01 98.11 
48.70 7.18 6.97 10.01 -0.03 -0.10 0.00 -0.04 0.03 -0.00 1.76 1.56 1.36 1.56 98.10 0.01 98.11 
48.75 7.18 6.96 10.01 -0.03 -0.10 0.00 -0.05 0.03 -0.00 1.56 1.36 1.56 1.76 98.10 0.01 98.11 
48.80 7.17 6.96 10.01 -0.04 -0.09 -0.00 -0.04 0.03 -0.04 1.49 1.69 1.63 1.43 98.10 0.01 98.10 
48.85 7.17 6.95 10.01 -0.04 -0.09 -0.00 -0.04 0.04 0.01 1.76 1.56 1.36 1.56 98.10 0.00 98.10 
48.90 7.17 6.95 10.01 -0.04 -0.09 -0.00 -0.04 0.04 0.01 1.56 1.36 1.56 1.76 98.10 0.00 98.10 
48.95 7.17 6.94 10.01 -0.04 -0.09 -0.00 -0.04 0.03 0.01 1.36 1.56 1.76 1.56 98.10 0.00 98.10 
49.00 7.17 6.94 10.01 -0.05 -0.09 -0.00 -0.04 0.03 0.00 1.56 1.76 1.56 1.36 98.10 0.00 98.10 
49.05 7.16 6.94 10.01 -0.05 -0.08 -0.00 -0.04 0.04 0.00 1.76 1.56 1.36 1.56 98.10 0.00 98.10 
49.10 7.16 6.93 10.01 -0.05 -0.08 -0.00 -0.04 0.04 0.00 1.56 1.36 1.56 1.76 98.10 0.00 98.10 
49.15 7.16 6.93 10.01 -0.05 -0.08 0.00 -0.04 0.03 0.00 1.36 1.56 1.76 1.56 98.10 0.00 98.10 
49.20 7.16 6.92 10.01 -0.05 -0.08 0.00 -0.03 0.03 0.00 1.56 1.76 1.56 1.36 98.10 0.00 98.10 
49.25 7.15 6.92 10.01 -0.05 -0.08 0.00 -0.03 0.04 0.00 1.76 1.56 1.36 1.56 98.10 0.00 98.10 
49.30 7.15 6.92 10.01 -0.06 -0.08 0.00 -0.04 0.04 0.00 1.56 1.36 1.56 1.76 98.10 0.00 98.10 
49.35 7.15 6.91 10.01 -0.06 -0.07 0.00 -0.03 0.03 0.00 1.36 1.56 1.76 1.56 98.10 0.00 98.10 
49.40 7.14 6.91 10.01 -0.06 -0.07 0.00 -0.03 0.03 0.00 1.56 1.76 1.56 1.36 98.10 0.00 98.10 
49.45 7.14 6.91 10.01 -0.06 -0.07 0.00 -0.03 0.04 0.00 1.76 1.56 1.36 1.56 98.10 0.00 98.10 
49.50 7.14 6.90 10.01 -0.06 -0.07 0.00 -0.03 0.04 0.00 1.56 1.36 1.56 1.76 98.10 0.00 98.10 
49.55 7.13 6.90 10.01 -0.06 -0.07 0.00 -0.03 0.03 -0.00 1.36 1.56 1.76 1.56 98.10 0.00 98.10 
49.60 7.13 6.90 10.01 -0.07 -0.07 0.00 -0.03 0.03 -0.00 1.56 1.76 1.56 1.36 98.10 0.00 98.10 
49.65 7.13 6.89 10.01 -0.07 -0.06 0.00 -0.03 0.04 -0.00 1.76 1.56 1.36 1.56 98.10 0.00 98.10 
49.70 7.12 6.89 10.01 -0.07 -0.06 0.00 -0.03 0.04 -0.00 1.56 1.36 1.56 1.76 98.10 0.00 98.10 
49.75 7.12 6.89 10.01 -0.07 -0.06 0.00 -0.03 0.03 -0.00 1.36 1.56 1.76 1.56 98.10 0.00 98.10 
49.80 7.12 6.88 10.01 -0.07 -0.06 0.00 -0.02 0.03 -0.00 1.56 1.76 1.56 1.36 98.10 0.00 98.10 
49.85 7.11 6.88 10.01 -0.07 -0.06 0.00 -0.02 0.04 -0.00 1.76 1.56 1.36 1.56 98.10 0.00 98.10 
49.90 7.11 6.88 10.01 -0.07 -0.05 0.00 -0.02 0.04 -0.00 1.56 1.36 1.56 1.76 98.10 0.00 98.10 
49.95 7.11 6.88 10.01 -0.07 -0.05 0.00 -0.02 0.03 -0.00 1.36 1.56 1.76 1.56 98.10 0.00 98.10 
50.00 7.10 6.87 10.01 -0.08 -0.05 0.00 -0.02 0.04 -0.00 1.56 1.76 1.56 1.36 98.10 0.00 98.10 
50.05 7.10 6.87 10.01 -0.08 -0.05 0.00 -0.02 0.04 -0.00 1.76 1.56 1.36 1.56 98.10 0.00 98.10 
